%time,field.header.seq,field.header.stamp,field.header.frame_id,field.orientation.x,field.orientation.y,field.orientation.z,field.orientation.w,field.orientation_covariance0,field.orientation_covariance1,field.orientation_covariance2,field.orientation_covariance3,field.orientation_covariance4,field.orientation_covariance5,field.orientation_covariance6,field.orientation_covariance7,field.orientation_covariance8,field.angular_velocity.x,field.angular_velocity.y,field.angular_velocity.z,field.angular_velocity_covariance0,field.angular_velocity_covariance1,field.angular_velocity_covariance2,field.angular_velocity_covariance3,field.angular_velocity_covariance4,field.angular_velocity_covariance5,field.angular_velocity_covariance6,field.angular_velocity_covariance7,field.angular_velocity_covariance8,field.linear_acceleration.x,field.linear_acceleration.y,field.linear_acceleration.z,field.linear_acceleration_covariance0,field.linear_acceleration_covariance1,field.linear_acceleration_covariance2,field.linear_acceleration_covariance3,field.linear_acceleration_covariance4,field.linear_acceleration_covariance5,field.linear_acceleration_covariance6,field.linear_acceleration_covariance7,field.linear_acceleration_covariance8
1317398079239670991,0,1317398079239670991,imu_link,0.002042365133890266,0.019000332956041928,0.7650731688120114,0.643659741211276,0.0,0.0,0.0,0.0,0.0,0.0,0.0,0.0,0.0,0.026183376206899,-0.004796068021999,0.018404150494775,0.0,0.0,0.0,0.0,0.0,0.0,0.0,0.0,0.0,-0.1709051397732,-0.038488920206222,9.8072174425491,0.0,0.0,0.0,0.0,0.0,0.0,0.0,0.0,0.0
1317398079339673995,0,1317398079339673995,imu_link,0.0030228228837481594,0.019430927593746594,0.7655553981679666,0.6430693850048735,0.0,0.0,0.0,0.0,0.0,0.0,0.0,0.0,0.0,0.018204692439936,-0.0091004116403586,0.014189673014257,0.0,0.0,0.0,0.0,0.0,0.0,0.0,0.0,0.0,-0.19356392240636,0.35448882078581,9.8436795899993,0.0,0.0,0.0,0.0,0.0,0.0,0.0,0.0,0.0
1317398079449843883,0,1317398079449843883,imu_link,0.003741791544925939,0.019181032949467734,0.7659435944136599,0.6426106886348132,0.0,0.0,0.0,0.0,0.0,0.0,0.0,0.0,0.0,0.0060059975547899,-0.012525457680913,0.011431776298587,0.0,0.0,0.0,0.0,0.0,0.0,0.0,0.0,0.0,-0.18542528803177,0.13167144972592,9.9598370944041,0.0,0.0,0.0,0.0,0.0,0.0,0.0,0.0,0.0
1317398079549899101,0,1317398079549899101,imu_link,0.004222440114198012,0.018836578381997402,0.7665068116757021,0.6419459961469428,0.0,0.0,0.0,0.0,0.0,0.0,0.0,0.0,0.0,0.0033544222222857,-0.012636782674997,0.01744645072199,0.0,0.0,0.0,0.0,0.0,0.0,0.0,0.0,0.0,-0.13301845253387,-0.12566829577299,9.6777088045481,0.0,0.0,0.0,0.0,0.0,0.0,0.0,0.0,0.0
1317398079649661064,0,1317398079649661064,imu_link,0.00558342698222908,0.01902608756188675,0.7671074669118713,0.6412121080760046,0.0,0.0,0.0,0.0,0.0,0.0,0.0,0.0,0.0,0.018715255751765,-0.017803901617337,0.018703706540465,0.0,0.0,0.0,0.0,0.0,0.0,0.0,0.0,0.0,0.058843618174037,0.039801059268097,9.7828783318158,0.0,0.0,0.0,0.0,0.0,0.0,0.0,0.0,0.0
1317398079759722948,0,1317398079759722948,imu_link,0.007275532046067486,0.019310255481123924,0.767603293520704,0.6405929787648847,0.0,0.0,0.0,0.0,0.0,0.0,0.0,0.0,0.0,0.022822564916885,-0.020879078394115,0.014773224216409,0.0,0.0,0.0,0.0,0.0,0.0,0.0,0.0,0.0,0.47385535687467,0.10240361356535,9.9022641789734,0.0,0.0,0.0,0.0,0.0,0.0,0.0,0.0,0.0
1317398079859652042,0,1317398079859652042,imu_link,0.008006710297554086,0.019455379932677506,0.768015432918574,0.6400856783125067,0.0,0.0,0.0,0.0,0.0,0.0,0.0,0.0,0.0,0.014000591273228,-0.012088868417495,0.012847810692222,0.0,0.0,0.0,0.0,0.0,0.0,0.0,0.0,0.0,0.74031706185156,0.17386194151735,10.003618707101,0.0,0.0,0.0,0.0,0.0,0.0,0.0,0.0,0.0
1317398079969841003,0,1317398079969841003,imu_link,0.007797592177755103,0.01979824951149419,0.7684730007554335,0.6395283214858037,0.0,0.0,0.0,0.0,0.0,0.0,0.0,0.0,0.0,0.0031076763841974,0.0045178086127255,0.013879831282204,0.0,0.0,0.0,0.0,0.0,0.0,0.0,0.0,0.0,0.75975665598305,0.094287794428046,9.9833546555624,0.0,0.0,0.0,0.0,0.0,0.0,0.0,0.0,0.0
1317398080069680929,0,1317398080069680929,imu_link,0.007967037165941594,0.01984898376987516,0.7688232792576057,0.6391035201230559,0.0,0.0,0.0,0.0,0.0,0.0,0.0,0.0,0.0,0.0040521472716584,-0.0027366755568685,0.011131435928417,0.0,0.0,0.0,0.0,0.0,0.0,0.0,0.0,0.0,0.71705830339619,0.083521331137859,9.7923986772453,0.0,0.0,0.0,0.0,0.0,0.0,0.0,0.0,0.0
1317398080179646015,0,1317398080179646015,imu_link,0.008782965966202122,0.018759558102060925,0.7692302013944026,0.6386359179934831,0.0,0.0,0.0,0.0,0.0,0.0,0.0,0.0,0.0,-0.0041868459148147,-0.022620936806673,0.011887067172154,0.0,0.0,0.0,0.0,0.0,0.0,0.0,0.0,0.0,0.76528657014809,0.14249436725172,9.5822964314454,0.0,0.0,0.0,0.0,0.0,0.0,0.0,0.0,0.0
1317398080279638051,0,1317398080279638051,imu_link,0.009689936789657792,0.016922364865080742,0.7695994874253931,0.6382290871207278,0.0,0.0,0.0,0.0,0.0,0.0,0.0,0.0,0.0,-0.015662801697082,-0.03622834345482,0.011012599171384,0.0,0.0,0.0,0.0,0.0,0.0,0.0,0.0,0.0,0.87067454577991,0.13156754089446,9.506786106098,0.0,0.0,0.0,0.0,0.0,0.0,0.0,0.0,0.0
1317398080379646062,0,1317398080379646062,imu_link,0.010645263941384833,0.015167492838940654,0.7699859374762253,0.6377917227476829,0.0,0.0,0.0,0.0,0.0,0.0,0.0,0.0,0.0,-0.013927636956785,-0.036095881595218,0.010679812597318,0.0,0.0,0.0,0.0,0.0,0.0,0.0,0.0,0.0,1.03274963915,0.021009483939948,9.7627395986722,0.0,0.0,0.0,0.0,0.0,0.0,0.0,0.0,0.0
1317398080489717960,0,1317398080489717960,imu_link,0.010417231489430835,0.014342173544595382,0.7704014150726124,0.6373126728696272,0.0,0.0,0.0,0.0,0.0,0.0,0.0,0.0,0.0,-0.015376760455691,-0.0035744516948488,0.01226433606212,0.0,0.0,0.0,0.0,0.0,0.0,0.0,0.0,0.0,1.2721739524229,0.11361665367603,10.267640421454,0.0,0.0,0.0,0.0,0.0,0.0,0.0,0.0,0.0
1317398080589646100,0,1317398080589646100,imu_link,0.007333910686632056,0.015389910644880083,0.770766077392471,0.6368901148121285,0.0,0.0,0.0,0.0,0.0,0.0,0.0,0.0,0.0,-0.021589694395385,0.054169801894237,0.011800691844774,0.0,0.0,0.0,0.0,0.0,0.0,0.0,0.0,0.0,1.4073084399966,0.086961942953869,10.38511994355,0.0,0.0,0.0,0.0,0.0,0.0,0.0,0.0,0.0
1317398080699630022,0,1317398080699630022,imu_link,0.002786334024911922,0.018590057436752086,0.7710389433378013,0.6365104822104087,0.0,0.0,0.0,0.0,0.0,0.0,0.0,0.0,0.0,-0.011885553268043,0.093552926082637,0.010299589356717,0.0,0.0,0.0,0.0,0.0,0.0,0.0,0.0,0.0,1.237855163969,0.011031721552646,9.9346211441912,0.0,0.0,0.0,0.0,0.0,0.0,0.0,0.0,0.0
1317398080799640893,0,1317398080799640893,imu_link,-0.00018842213296609185,0.02047104818334363,0.771253538313527,0.6361987742225222,0.0,0.0,0.0,0.0,0.0,0.0,0.0,0.0,0.0,-0.0082100489278936,0.068068778109304,0.009191285405946,0.0,0.0,0.0,0.0,0.0,0.0,0.0,0.0,0.0,1.1366050315425,0.086842869910234,9.5262945795738,0.0,0.0,0.0,0.0,0.0,0.0,0.0,0.0,0.0
1317398080899650096,0,1317398080899650096,imu_link,-0.0010787141759468627,0.019738354142440774,0.7716697181589104,0.6357161944044072,0.0,0.0,0.0,0.0,0.0,0.0,0.0,0.0,0.0,-0.021763642794173,0.0068856192696771,0.012342830566678,0.0,0.0,0.0,0.0,0.0,0.0,0.0,0.0,0.0,1.1978250610711,0.17676882103019,8.2625408764342,0.0,0.0,0.0,0.0,0.0,0.0,0.0,0.0,0.0
1317398081009690999,0,1317398081009690999,imu_link,0.00114911961458418,0.01633943765743473,0.771986484767332,0.63542786344142,0.0,0.0,0.0,0.0,0.0,0.0,0.0,0.0,0.0,-0.021333511092456,-0.059591480849296,0.007414099349001,0.0,0.0,0.0,0.0,0.0,0.0,0.0,0.0,0.0,1.520906791288,0.06555130114973,8.9804453127425,0.0,0.0,0.0,0.0,0.0,0.0,0.0,0.0,0.0
1317398081109601974,0,1317398081109601974,imu_link,0.004049746045464869,0.014287501228100071,0.7722668717760325,0.6351246693546749,0.0,0.0,0.0,0.0,0.0,0.0,0.0,0.0,0.0,0.0039189830871673,-0.068770594469015,0.0079035723270388,0.0,0.0,0.0,0.0,0.0,0.0,0.0,0.0,0.0,1.6727394017581,-0.27702418833882,10.074161927392,0.0,0.0,0.0,0.0,0.0,0.0,0.0,0.0,0.0
1317398081219624996,0,1317398081219624996,imu_link,0.004481754988121975,0.015434033355784242,0.772681061209575,0.6345909565496847,0.0,0.0,0.0,0.0,0.0,0.0,0.0,0.0,0.0,0.020663019517297,0.0056372660993459,0.010892494047997,0.0,0.0,0.0,0.0,0.0,0.0,0.0,0.0,0.0,1.9945030434295,0.02915427068781,11.235228951651,0.0,0.0,0.0,0.0,0.0,0.0,0.0,0.0,0.0
1317398081319645881,0,1317398081319645881,imu_link,0.0011287833786222147,0.018801018913398772,0.7727950492798263,0.6343761182015705,0.0,0.0,0.0,0.0,0.0,0.0,0.0,0.0,0.0,0.0082829265755056,0.080326748484618,0.0066677113340298,0.0,0.0,0.0,0.0,0.0,0.0,0.0,0.0,0.0,1.7686602861504,0.20939328554958,10.328460930786,0.0,0.0,0.0,0.0,0.0,0.0,0.0,0.0,0.0
1317398081429598093,0,1317398081429598093,imu_link,-0.0018728400972039295,0.02160269934193499,0.7729140626975065,0.634140100873259,0.0,0.0,0.0,0.0,0.0,0.0,0.0,0.0,0.0,0.0079105623071455,0.067305413471774,0.0062361817272423,0.0,0.0,0.0,0.0,0.0,0.0,0.0,0.0,0.0,1.5520309298594,0.089384493496958,8.9510309482552,0.0,0.0,0.0,0.0,0.0,0.0,0.0,0.0,0.0
1317398081529654026,0,1317398081529654026,imu_link,-0.002621897474997647,0.022803361724344332,0.7730330235503714,0.6339503741210901,0.0,0.0,0.0,0.0,0.0,0.0,0.0,0.0,0.0,0.0098102084849206,0.031129404530572,0.0047279275769265,0.0,0.0,0.0,0.0,0.0,0.0,0.0,0.0,0.0,1.5682190673302,-0.038851801268543,9.1743448110123,0.0,0.0,0.0,0.0,0.0,0.0,0.0,0.0,0.0
1317398081629601955,0,1317398081629601955,imu_link,-0.0016168690069228806,0.023335919343331662,0.7730921641801517,0.6338622297362931,0.0,0.0,0.0,0.0,0.0,0.0,0.0,0.0,0.0,0.017931992175331,-0.0049074551758924,0.0014933017501215,0.0,0.0,0.0,0.0,0.0,0.0,0.0,0.0,0.0,1.5990528187496,-0.010956106159663,9.1029412519415,0.0,0.0,0.0,0.0,0.0,0.0,0.0,0.0,0.0
1317398081739624023,0,1317398081739624023,imu_link,-0.0002914982671934196,0.022731639564606332,0.7729907636312401,0.6340098318892677,0.0,0.0,0.0,0.0,0.0,0.0,0.0,0.0,0.0,0.0051430910923809,-0.022028314274619,-0.003614124390405,0.0,0.0,0.0,0.0,0.0,0.0,0.0,0.0,0.0,1.7042463871659,0.12184099363372,9.6644862297651,0.0,0.0,0.0,0.0,0.0,0.0,0.0,0.0,0.0
1317398081839612960,0,1317398081839612960,imu_link,0.00020837331365480653,0.020760097307228526,0.7728303139525325,0.6342730333037868,0.0,0.0,0.0,0.0,0.0,0.0,0.0,0.0,0.0,-0.017626951245032,-0.033972940553707,-0.0063156276789101,0.0,0.0,0.0,0.0,0.0,0.0,0.0,0.0,0.0,1.5762318036453,0.046587008168797,9.9267347372105,0.0,0.0,0.0,0.0,0.0,0.0,0.0,0.0,0.0
1317398081949678897,0,1317398081949678897,imu_link,0.0032332323363429803,0.020017458830054412,0.7724796036934409,0.6347157705841809,0.0,0.0,0.0,0.0,0.0,0.0,0.0,0.0,0.0,0.020240598712317,-0.048711833359753,-0.010124554527953,0.0,0.0,0.0,0.0,0.0,0.0,0.0,0.0,0.0,1.5080589139026,-0.392723214734,10.077006297025,0.0,0.0,0.0,0.0,0.0,0.0,0.0,0.0,0.0
1317398082049709081,0,1317398082049709081,imu_link,0.006387077683556373,0.01916488824351849,0.7722664485800229,0.6349775151096899,0.0,0.0,0.0,0.0,0.0,0.0,0.0,0.0,0.0,0.026636032250531,-0.055772729165923,-0.0081265021519123,0.0,0.0,0.0,0.0,0.0,0.0,0.0,0.0,0.0,1.5644028793183,-0.11783450204625,10.017631859479,0.0,0.0,0.0,0.0,0.0,0.0,0.0,0.0,0.0
1317398082159647941,0,1317398082159647941,imu_link,0.008536655248866369,0.01696010414550647,0.7718855412232588,0.6354779237983114,0.0,0.0,0.0,0.0,0.0,0.0,0.0,0.0,0.0,-0.008374251261223,-0.053207357624347,-0.011085508671496,0.0,0.0,0.0,0.0,0.0,0.0,0.0,0.0,0.0,1.5797703766536,0.28553479303375,10.29836732208,0.0,0.0,0.0,0.0,0.0,0.0,0.0,0.0,0.0
1317398082259574890,0,1317398082259574890,imu_link,0.008495521867011043,0.016203385123525964,0.771821185833116,0.6355763789804563,0.0,0.0,0.0,0.0,0.0,0.0,0.0,0.0,0.0,-0.007194322147432,-0.01055768142789,-0.002690446176415,0.0,0.0,0.0,0.0,0.0,0.0,0.0,0.0,0.0,1.4599992351291,-0.040951818056346,10.718009253934,0.0,0.0,0.0,0.0,0.0,0.0,0.0,0.0,0.0
1317398082359594106,0,1317398082359594106,imu_link,0.008146389998930397,0.016265382932925707,0.7719082649361227,0.6354736061956745,0.0,0.0,0.0,0.0,0.0,0.0,0.0,0.0,0.0,-0.0035729733919708,0.0031011189200479,0.001614191907329,0.0,0.0,0.0,0.0,0.0,0.0,0.0,0.0,0.0,1.3982496682835,-0.039741973305224,10.168010251748,0.0,0.0,0.0,0.0,0.0,0.0,0.0,0.0,0.0
1317398082469732046,0,1317398082469732046,imu_link,0.008111325284689108,0.015431338052029672,0.7719032983879854,0.6355008876042574,0.0,0.0,0.0,0.0,0.0,0.0,0.0,0.0,0.0,-0.013126675311433,-0.013286718413332,0.00011397356813812,0.0,0.0,0.0,0.0,0.0,0.0,0.0,0.0,0.0,1.1774840761469,0.17514443582012,9.5147720070028,0.0,0.0,0.0,0.0,0.0,0.0,0.0,0.0,0.0
1317398082569617033,0,1317398082569617033,imu_link,0.008107609583669084,0.013757679962519465,0.7718737582191513,0.6355752467501633,0.0,0.0,0.0,0.0,0.0,0.0,0.0,0.0,0.0,-0.025513159244405,-0.018664432893165,-0.0010961362146198,0.0,0.0,0.0,0.0,0.0,0.0,0.0,0.0,0.0,1.1725291781166,0.13574041686286,9.7726287185528,0.0,0.0,0.0,0.0,0.0,0.0,0.0,0.0,0.0
1317398082679593086,0,1317398082679593086,imu_link,0.007268107422279202,0.012046285223706285,0.7719105580194944,0.6355754495296685,0.0,0.0,0.0,0.0,0.0,0.0,0.0,0.0,0.0,-0.032566737464178,-0.0085057726319527,0.0012124966667731,0.0,0.0,0.0,0.0,0.0,0.0,0.0,0.0,0.0,1.0088251040315,0.010505833989922,10.207341664307,0.0,0.0,0.0,0.0,0.0,0.0,0.0,0.0,0.0
1317398082779612064,0,1317398082779612064,imu_link,0.006658377203384414,0.011437110608801808,0.7718953063444128,0.6356119056133269,0.0,0.0,0.0,0.0,0.0,0.0,0.0,0.0,0.0,-0.020147296944352,-8.1064826794019e-05,0.00013750629828884,0.0,0.0,0.0,0.0,0.0,0.0,0.0,0.0,0.0,0.89510722820904,-0.098396779044967,10.065188395804,0.0,0.0,0.0,0.0,0.0,0.0,0.0,0.0,0.0
1317398082889604091,0,1317398082889604091,imu_link,0.006339222777201971,0.011136114868608087,0.7719775470618571,0.63552062754294,0.0,0.0,0.0,0.0,0.0,0.0,0.0,0.0,0.0,-0.008316114562894,0.00030685311460393,0.0016881110240115,0.0,0.0,0.0,0.0,0.0,0.0,0.0,0.0,0.0,0.7581266335815,-0.063359030295098,9.7263830050962,0.0,0.0,0.0,0.0,0.0,0.0,0.0,0.0,0.0
1317398082989825963,0,1317398082989825963,imu_link,0.006370517117779802,0.011089385299466471,0.7720354511908268,0.6354507881417005,0.0,0.0,0.0,0.0,0.0,0.0,0.0,0.0,0.0,-0.0024934347921369,0.00017565899853776,0.0023739356176569,0.0,0.0,0.0,0.0,0.0,0.0,0.0,0.0,0.0,0.74933314804616,-0.02591986311478,9.8994528346498,0.0,0.0,0.0,0.0,0.0,0.0,0.0,0.0,0.0
1317398083089576959,0,1317398083089576959,imu_link,0.005723936791870086,0.011150783107152125,0.7721527616305528,0.6353133158450331,0.0,0.0,0.0,0.0,0.0,0.0,0.0,0.0,0.0,-0.00746082339703,0.0094887569062763,0.0040181447471732,0.0,0.0,0.0,0.0,0.0,0.0,0.0,0.0,0.0,0.77385392363749,0.06402636718761,9.8221982522882,0.0,0.0,0.0,0.0,0.0,0.0,0.0,0.0,0.0
1317398083199584007,0,1317398083199584007,imu_link,0.004735185735287327,0.011519205214124226,0.7722631493074471,0.6351806940934451,0.0,0.0,0.0,0.0,0.0,0.0,0.0,0.0,0.0,-0.0074082595917185,0.017249112202287,0.0033670108021169,0.0,0.0,0.0,0.0,0.0,0.0,0.0,0.0,0.0,0.79893113926629,0.087441820141061,9.6935195919724,0.0,0.0,0.0,0.0,0.0,0.0,0.0,0.0,0.0
1317398083299561023,0,1317398083299561023,imu_link,0.004051098073666879,0.011683300149832957,0.7723762950112423,0.6350448393670426,0.0,0.0,0.0,0.0,0.0,0.0,0.0,0.0,0.0,-0.0048587775540455,0.011590024418712,0.0033894223829738,0.0,0.0,0.0,0.0,0.0,0.0,0.0,0.0,0.0,0.68473841141506,0.04806147765365,9.6977927365065,0.0,0.0,0.0,0.0,0.0,0.0,0.0,0.0,0.0
1317398083409584999,0,1317398083409584999,imu_link,0.004386327136761767,0.011463944184870307,0.7723917395328527,0.6350278252323983,0.0,0.0,0.0,0.0,0.0,0.0,0.0,0.0,0.0,-0.00090540659579955,-0.0048990121799862,0.0016541078448936,0.0,0.0,0.0,0.0,0.0,0.0,0.0,0.0,0.0,0.70543274147795,0.053445992558619,9.5243533431969,0.0,0.0,0.0,0.0,0.0,0.0,0.0,0.0,0.0
1317398083509615898,0,1317398083509615898,imu_link,0.004491881432638896,0.010691466850872175,0.7724516003004914,0.634967747788013,0.0,0.0,0.0,0.0,0.0,0.0,0.0,0.0,0.0,-0.0081178485871466,-0.0088878578585526,0.0016430994864053,0.0,0.0,0.0,0.0,0.0,0.0,0.0,0.0,0.0,0.77354847285017,0.10921612419136,9.7189498416628,0.0,0.0,0.0,0.0,0.0,0.0,0.0,0.0,0.0
1317398083609576940,0,1317398083609576940,imu_link,0.00430713884819644,0.010961630443613282,0.7725491365316546,0.6348457472939035,0.0,0.0,0.0,0.0,0.0,0.0,0.0,0.0,0.0,0.0012659293462057,0.0080497840317867,0.002515841534044,0.0,0.0,0.0,0.0,0.0,0.0,0.0,0.0,0.0,0.78911633051267,-0.060815954035778,10.157870413949,0.0,0.0,0.0,0.0,0.0,0.0,0.0,0.0,0.0
1317398083719604015,0,1317398083719604015,imu_link,0.0034560711372346384,0.012187621387710337,0.7727761265523053,0.6345522639531115,0.0,0.0,0.0,0.0,0.0,0.0,0.0,0.0,0.0,0.0065779167204115,0.024220965770131,0.0059431563786779,0.0,0.0,0.0,0.0,0.0,0.0,0.0,0.0,0.0,0.73382021322614,0.049604042660854,9.7992681759585,0.0,0.0,0.0,0.0,0.0,0.0,0.0,0.0,0.0
1317398083819546937,0,1317398083819546937,imu_link,0.002107450148015432,0.013199862916809468,0.7728823145320203,0.6344085829782558,0.0,0.0,0.0,0.0,0.0,0.0,0.0,0.0,0.0,-3.7876864437142e-05,0.032788858489082,0.0039004251200952,0.0,0.0,0.0,0.0,0.0,0.0,0.0,0.0,0.0,0.693304753955,0.11912294475794,9.6870683596978,0.0,0.0,0.0,0.0,0.0,0.0,0.0,0.0,0.0
1317398083929575920,0,1317398083929575920,imu_link,0.0010390309833483114,0.014006818334327662,0.7730559099217855,0.6341823788073624,0.0,0.0,0.0,0.0,0.0,0.0,0.0,0.0,0.0,0.00033228215928933,0.022994399824271,0.0051146342663312,0.0,0.0,0.0,0.0,0.0,0.0,0.0,0.0,0.0,0.65268340314602,-0.0038813397563763,9.4971999662917,0.0,0.0,0.0,0.0,0.0,0.0,0.0,0.0,0.0
1317398084029737949,0,1317398084029737949,imu_link,0.0008232522899044199,0.014236511307146479,0.7732181535439232,0.633979756010864,0.0,0.0,0.0,0.0,0.0,0.0,0.0,0.0,0.0,-0.00021135649104148,0.0073846833452072,0.0051696272201275,0.0,0.0,0.0,0.0,0.0,0.0,0.0,0.0,0.0,0.61483665965464,0.020887276658093,9.4135897301957,0.0,0.0,0.0,0.0,0.0,0.0,0.0,0.0,0.0
1317398084139569997,0,1317398084139569997,imu_link,0.0016184035168345066,0.013934667636752555,0.7733406661633805,0.6338354832808658,0.0,0.0,0.0,0.0,0.0,0.0,0.0,0.0,0.0,0.0046838840707433,-0.010886068032681,0.0044736760441575,0.0,0.0,0.0,0.0,0.0,0.0,0.0,0.0,0.0,0.5673142001757,0.051553590356241,9.7145199111279,0.0,0.0,0.0,0.0,0.0,0.0,0.0,0.0,0.0
1317398084239552021,0,1317398084239552021,imu_link,0.0016737858161150277,0.013755231782642529,0.7734474903837881,0.633708901356662,0.0,0.0,0.0,0.0,0.0,0.0,0.0,0.0,0.0,-0.0014921624518319,8.1917947270174e-05,0.0056633057061445,0.0,0.0,0.0,0.0,0.0,0.0,0.0,0.0,0.0,0.26537349594868,0.10312420066068,10.123057866408,0.0,0.0,0.0,0.0,0.0,0.0,0.0,0.0,0.0
1317398084339576005,0,1317398084339576005,imu_link,0.001448082081269223,0.01409836383990442,0.7736062535408748,0.6335080928273732,0.0,0.0,0.0,0.0,0.0,0.0,0.0,0.0,0.0,0.0031630153949487,0.0084668933448384,0.0055420707949678,0.0,0.0,0.0,0.0,0.0,0.0,0.0,0.0,0.0,0.10198634626457,0.0096645780196489,10.061337844549,0.0,0.0,0.0,0.0,0.0,0.0,0.0,0.0,0.0
1317398084449598073,0,1317398084449598073,imu_link,0.0006279258492754214,0.0148416728725842,0.773861713383722,0.6331803684687966,0.0,0.0,0.0,0.0,0.0,0.0,0.0,0.0,0.0,0.0019513040346932,0.019431290813301,0.0071223477613776,0.0,0.0,0.0,0.0,0.0,0.0,0.0,0.0,0.0,-0.016255738386112,0.14471831804477,9.8391427030801,0.0,0.0,0.0,0.0,0.0,0.0,0.0,0.0,0.0
1317398084549599885,0,1317398084549599885,imu_link,-0.000256566484411907,0.015555311566761893,0.7740364484142683,0.6329498739883955,0.0,0.0,0.0,0.0,0.0,0.0,0.0,0.0,0.0,0.00050720383719549,0.020903780066312,0.0064760224556232,0.0,0.0,0.0,0.0,0.0,0.0,0.0,0.0,0.0,-0.13786853893846,0.067758284482599,9.6437109178371,0.0,0.0,0.0,0.0,0.0,0.0,0.0,0.0,0.0
1317398084659543037,0,1317398084659543037,imu_link,-0.0009151476349805558,0.015107456324597583,0.7742070577456611,0.6327514195993661,0.0,0.0,0.0,0.0,0.0,0.0,0.0,0.0,0.0,-0.012647596731794,0.0019299188852375,0.0050243568865546,0.0,0.0,0.0,0.0,0.0,0.0,0.0,0.0,0.0,-0.059803394734608,0.081356770737952,9.4332491206143,0.0,0.0,0.0,0.0,0.0,0.0,0.0,0.0,0.0
1317398084759555101,0,1317398084759555101,imu_link,0.0003425702901650408,0.013563844831730513,0.7743361625098402,0.6326289688186207,0.0,0.0,0.0,0.0,0.0,0.0,0.0,0.0,0.0,-0.010540994936091,-0.034067482249042,0.0035601828898724,0.0,0.0,0.0,0.0,0.0,0.0,0.0,0.0,0.0,-0.0083169023922492,0.020399698704644,9.6126187503665,0.0,0.0,0.0,0.0,0.0,0.0,0.0,0.0,0.0
1317398084869721889,0,1317398084869721889,imu_link,0.0016078735396838914,0.01150210595961423,0.7743759700554563,0.6326191376348375,0.0,0.0,0.0,0.0,0.0,0.0,0.0,0.0,0.0,-0.014009517900964,-0.039891199155667,-0.00035442270558958,0.0,0.0,0.0,0.0,0.0,0.0,0.0,0.0,0.0,0.17151739807636,0.021276787686096,10.036907814027,0.0,0.0,0.0,0.0,0.0,0.0,0.0,0.0,0.0
1317398084969672918,0,1317398084969672918,imu_link,0.0015669431172850613,0.011054053377683259,0.7744303257251967,0.6325606873576292,0.0,0.0,0.0,0.0,0.0,0.0,0.0,0.0,0.0,-0.0045140318741146,-0.0075798276395028,0.00082182430362607,0.0,0.0,0.0,0.0,0.0,0.0,0.0,0.0,0.0,0.36806501840907,-0.21665630236461,10.610562354962,0.0,0.0,0.0,0.0,0.0,0.0,0.0,0.0,0.0
1317398085069590091,0,1317398085069590091,imu_link,0.0005295251823829701,0.011892233339018607,0.7743679277941453,0.6326235901332585,0.0,0.0,0.0,0.0,0.0,0.0,0.0,0.0,0.0,-0.0039304118117616,0.016526146052684,-0.00018685485262055,0.0,0.0,0.0,0.0,0.0,0.0,0.0,0.0,0.0,0.11889051392311,-0.091795871346497,9.8846173483849,0.0,0.0,0.0,0.0,0.0,0.0,0.0,0.0,0.0
1317398085179549932,0,1317398085179549932,imu_link,-0.0006685206765829031,0.012322121555560867,0.7743142183660634,0.6326809698707773,0.0,0.0,0.0,0.0,0.0,0.0,0.0,0.0,0.0,-0.0040471235944103,0.020106141036011,-0.0025765848595902,0.0,0.0,0.0,0.0,0.0,0.0,0.0,0.0,0.0,0.064150626654553,-0.094160291396891,9.757150080912,0.0,0.0,0.0,0.0,0.0,0.0,0.0,0.0,0.0
1317398085279772996,0,1317398085279772996,imu_link,-0.00048184404380709634,0.013552064817684473,0.7742751764262368,0.6327037699710778,0.0,0.0,0.0,0.0,0.0,0.0,0.0,0.0,0.0,0.022121743005626,0.010099403682942,-0.00071607979611821,0.0,0.0,0.0,0.0,0.0,0.0,0.0,0.0,0.0,-0.17956182332958,0.28968893009938,9.3786915224157,0.0,0.0,0.0,0.0,0.0,0.0,0.0,0.0,0.0
1317398085389530897,0,1317398085389530897,imu_link,-0.0008552947421505992,0.01327491323826307,0.7741705595281949,0.6328372538885666,0.0,0.0,0.0,0.0,0.0,0.0,0.0,0.0,0.0,0.0010319263848057,0.0095729442615434,-0.0039828602766222,0.0,0.0,0.0,0.0,0.0,0.0,0.0,0.0,0.0,-0.073321697932861,0.19087509998312,9.5598481736579,0.0,0.0,0.0,0.0,0.0,0.0,0.0,0.0,0.0
1317398085489763975,0,1317398085489763975,imu_link,0.0008552778269442793,0.013183102125046229,0.7740206615351576,0.6330225034190149,0.0,0.0,0.0,0.0,0.0,0.0,0.0,0.0,0.0,0.020459407208946,-0.016436058608555,-0.0052567039999124,0.0,0.0,0.0,0.0,0.0,0.0,0.0,0.0,0.0,-0.19097916001328,0.32757125429165,9.9320895491717,0.0,0.0,0.0,0.0,0.0,0.0,0.0,0.0,0.0
1317398085589530944,0,1317398085589530944,imu_link,0.0013990820332723175,0.011938247708067336,0.7740034908716037,0.6330672293917101,0.0,0.0,0.0,0.0,0.0,0.0,0.0,0.0,0.0,4.3562351740914e-05,-0.023729304805336,-0.0023698838133154,0.0,0.0,0.0,0.0,0.0,0.0,0.0,0.0,0.0,-0.0048927420941235,-0.11393011904405,10.090097011025,0.0,0.0,0.0,0.0,0.0,0.0,0.0,0.0,0.0
1317398085699522018,0,1317398085699522018,imu_link,0.0025220807068488263,0.011639834789808007,0.7739634300352668,0.6331182846222484,0.0,0.0,0.0,0.0,0.0,0.0,0.0,0.0,0.0,0.0088517589126198,-0.021689866147996,-0.00077885728198401,0.0,0.0,0.0,0.0,0.0,0.0,0.0,0.0,0.0,-0.038821586039036,-0.23206854018345,10.035844806367,0.0,0.0,0.0,0.0,0.0,0.0,0.0,0.0,0.0
1317398085799509048,0,1317398085799509048,imu_link,0.004039663713783859,0.0112050053251431,0.7739399310130963,0.6331469909556444,0.0,0.0,0.0,0.0,0.0,0.0,0.0,0.0,0.0,0.014710570577092,-0.024752127812699,-0.0017686953542473,0.0,0.0,0.0,0.0,0.0,0.0,0.0,0.0,0.0,-0.011229581570503,-0.045745562100371,9.8794764967848,0.0,0.0,0.0,0.0,0.0,0.0,0.0,0.0,0.0
1317398085909544944,0,1317398085909544944,imu_link,0.005583084057012782,0.011042932459110257,0.773874020993923,0.6332186687439127,0.0,0.0,0.0,0.0,0.0,0.0,0.0,0.0,0.0,0.014657950986581,-0.018483684051632,-0.0028378338855424,0.0,0.0,0.0,0.0,0.0,0.0,0.0,0.0,0.0,0.11057383220958,-0.027528898668804,10.213922377641,0.0,0.0,0.0,0.0,0.0,0.0,0.0,0.0,0.0
1317398086009665012,0,1317398086009665012,imu_link,0.005285496070085389,0.012196194118062977,0.7738172960945828,0.6332693807892471,0.0,0.0,0.0,0.0,0.0,0.0,0.0,0.0,0.0,0.015823060116799,0.015655771831981,-0.0032450714392699,0.0,0.0,0.0,0.0,0.0,0.0,0.0,0.0,0.0,0.19354587688621,-0.037307625025122,10.175801532922,0.0,0.0,0.0,0.0,0.0,0.0,0.0,0.0,0.0
1317398086119570016,0,1317398086119570016,imu_link,0.003264497349817273,0.014788533874608913,0.773798518476918,0.6332507363800058,0.0,0.0,0.0,0.0,0.0,0.0,0.0,0.0,0.0,0.014393728444787,0.053911924689995,-0.00026967545143895,0.0,0.0,0.0,0.0,0.0,0.0,0.0,0.0,0.0,0.18237044767285,-0.015151372097371,9.7722804130103,0.0,0.0,0.0,0.0,0.0,0.0,0.0,0.0,0.0
1317398086219512939,0,1317398086219512939,imu_link,0.0013926965124581962,0.017103406002323702,0.7737006071820536,0.6333189594080264,0.0,0.0,0.0,0.0,0.0,0.0,0.0,0.0,0.0,0.013500004621702,0.053780284505116,-0.0012904183041577,0.0,0.0,0.0,0.0,0.0,0.0,0.0,0.0,0.0,0.063818250543249,0.0013610100877484,9.1877791917447,0.0,0.0,0.0,0.0,0.0,0.0,0.0,0.0,0.0
1317398086319509029,0,1317398086319509029,imu_link,0.0013388703335864664,0.018171286750529522,0.7736395681363855,0.6333639004378186,0.0,0.0,0.0,0.0,0.0,0.0,0.0,0.0,0.0,0.017950043177193,0.016099587170293,-0.0016908991770606,0.0,0.0,0.0,0.0,0.0,0.0,0.0,0.0,0.0,-0.058661889329469,-0.044482492153524,9.0200949035604,0.0,0.0,0.0,0.0,0.0,0.0,0.0,0.0,0.0
1317398086429521083,0,1317398086429521083,imu_link,0.0036845446829649334,0.01833527673538974,0.7735277690904718,0.6334864104331154,0.0,0.0,0.0,0.0,0.0,0.0,0.0,0.0,0.0,0.029030182252701,-0.02418051921199,-0.0042893202318545,0.0,0.0,0.0,0.0,0.0,0.0,0.0,0.0,0.0,0.14037840391321,-0.091068313912114,9.4062916545104,0.0,0.0,0.0,0.0,0.0,0.0,0.0,0.0,0.0
1317398086529572010,0,1317398086529572010,imu_link,0.0054792163355747376,0.01803238801163411,0.7734956510904065,0.6335213405365079,0.0,0.0,0.0,0.0,0.0,0.0,0.0,0.0,0.0,0.017900149452807,-0.026381144526796,-0.0023454497031027,0.0,0.0,0.0,0.0,0.0,0.0,0.0,0.0,0.0,0.055535374353209,0.2065587472741,9.9797050555083,0.0,0.0,0.0,0.0,0.0,0.0,0.0,0.0,0.0
1317398086639507055,0,1317398086639507055,imu_link,0.006369382674631894,0.015943810325163437,0.7735307511444222,0.6335261659241908,0.0,0.0,0.0,0.0,0.0,0.0,0.0,0.0,0.0,-0.01560447148525,-0.033840704172645,-0.0010634254454882,0.0,0.0,0.0,0.0,0.0,0.0,0.0,0.0,0.0,0.064747494446133,0.18128019629288,10.231563945401,0.0,0.0,0.0,0.0,0.0,0.0,0.0,0.0,0.0
1317398086739523887,0,1317398086739523887,imu_link,0.008306420243505166,0.014745855869832793,0.7735013944057765,0.6335685882126135,0.0,0.0,0.0,0.0,0.0,0.0,0.0,0.0,0.0,0.01105614215772,-0.043479398884787,-0.00152253718941,0.0,0.0,0.0,0.0,0.0,0.0,0.0,0.0,0.0,0.019251641036243,0.45629533192892,10.134221933872,0.0,0.0,0.0,0.0,0.0,0.0,0.0,0.0,0.0
1317398086839589118,0,1317398086839589118,imu_link,0.007695993521492689,0.013221399799223243,0.7733695683091196,0.6337708395661891,0.0,0.0,0.0,0.0,0.0,0.0,0.0,0.0,0.0,-0.021729732818965,-0.0088308279097628,-0.0035217340262359,0.0,0.0,0.0,0.0,0.0,0.0,0.0,0.0,0.0,0.15032795531399,0.19210854684045,10.490888955467,0.0,0.0,0.0,0.0,0.0,0.0,0.0,0.0,0.0
1317398086949579000,0,1317398086949579000,imu_link,0.004586609205751041,0.012540677081029416,0.7730868873378138,0.6341595690838968,0.0,0.0,0.0,0.0,0.0,0.0,0.0,0.0,0.0,-0.036786241067809,0.030752337794843,-0.0063766388030946,0.0,0.0,0.0,0.0,0.0,0.0,0.0,0.0,0.0,0.097690104777706,-0.21020193528471,10.023111357511,0.0,0.0,0.0,0.0,0.0,0.0,0.0,0.0,0.0
1317398087049614906,0,1317398087049614906,imu_link,0.003186344000115208,0.012776962929383781,0.7730592525028533,0.6341971212091267,0.0,0.0,0.0,0.0,0.0,0.0,0.0,0.0,0.0,-0.016633561443059,0.023176948036534,-0.0011186719679107,0.0,0.0,0.0,0.0,0.0,0.0,0.0,0.0,0.0,0.025774428831276,-0.35917928138687,9.3062406288348,0.0,0.0,0.0,0.0,0.0,0.0,0.0,0.0,0.0
1317398087159513950,0,1317398087159513950,imu_link,0.0033265905627783317,0.013184417868465874,0.7731045186258695,0.6341328789780261,0.0,0.0,0.0,0.0,0.0,0.0,0.0,0.0,0.0,0.0039803595031542,0.0068447245263994,0.0011940852496432,0.0,0.0,0.0,0.0,0.0,0.0,0.0,0.0,0.0,-0.012804913269452,0.011177674275023,9.8804367457027,0.0,0.0,0.0,0.0,0.0,0.0,0.0,0.0,0.0
1317398087259489059,0,1317398087259489059,imu_link,0.0034468694038839384,0.01402002370546826,0.7730396807281964,0.6341933538332445,0.0,0.0,0.0,0.0,0.0,0.0,0.0,0.0,0.0,0.014153480861389,0.0080002082885543,-0.00036723519866436,0.0,0.0,0.0,0.0,0.0,0.0,0.0,0.0,0.0,-0.06079682513977,-0.01695488364878,9.8606690668978,0.0,0.0,0.0,0.0,0.0,0.0,0.0,0.0,0.0
1317398087369647026,0,1317398087369647026,imu_link,0.0032774994431875376,0.014969526102131793,0.7731256170291557,0.6340677815336186,0.0,0.0,0.0,0.0,0.0,0.0,0.0,0.0,0.0,0.01148025559979,0.012486943028869,0.0021795839056854,0.0,0.0,0.0,0.0,0.0,0.0,0.0,0.0,0.0,-0.096538186753834,0.040799073075942,9.7099928758324,0.0,0.0,0.0,0.0,0.0,0.0,0.0,0.0,0.0
1317398087469645023,0,1317398087469645023,imu_link,0.003093653468048122,0.01613098822156944,0.7732017475908327,0.6339473779815621,0.0,0.0,0.0,0.0,0.0,0.0,0.0,0.0,0.0,0.016498414905228,0.01679703306441,0.0025666523848715,0.0,0.0,0.0,0.0,0.0,0.0,0.0,0.0,0.0,-0.090854517133494,-0.031235878380302,9.8088908536092,0.0,0.0,0.0,0.0,0.0,0.0,0.0,0.0,0.0
1317398087569519996,0,1317398087569519996,imu_link,0.0027065515637139815,0.017229418900821015,0.7734051018800896,0.6336721313809068,0.0,0.0,0.0,0.0,0.0,0.0,0.0,0.0,0.0,0.012603887787198,0.016955312081762,0.0058724757101934,0.0,0.0,0.0,0.0,0.0,0.0,0.0,0.0,0.0,-0.3462908486367,0.089783731230034,9.7104033099249,0.0,0.0,0.0,0.0,0.0,0.0,0.0,0.0,0.0
1317398087679558992,0,1317398087679558992,imu_link,0.003397873646339201,0.017144797454088315,0.7735942402429802,0.6334401801573909,0.0,0.0,0.0,0.0,0.0,0.0,0.0,0.0,0.0,0.0071979356660566,-0.011842662778634,0.0062457283605969,0.0,0.0,0.0,0.0,0.0,0.0,0.0,0.0,0.0,-0.28555827003643,0.10032875223304,9.5573663902541,0.0,0.0,0.0,0.0,0.0,0.0,0.0,0.0,0.0
1317398087779481887,0,1317398087779481887,imu_link,0.004785006914285322,0.015873508273541417,0.7737521961704737,0.6332714065590589,0.0,0.0,0.0,0.0,0.0,0.0,0.0,0.0,0.0,1.5438226724552e-05,-0.035279398022733,0.0044702627673054,0.0,0.0,0.0,0.0,0.0,0.0,0.0,0.0,0.0,-0.27805038983546,0.14129366128758,9.703912245923,0.0,0.0,0.0,0.0,0.0,0.0,0.0,0.0,0.0
1317398087889482975,0,1317398087889482975,imu_link,0.005496162165036621,0.01485940089601973,0.773973570037906,0.6330196705389539,0.0,0.0,0.0,0.0,0.0,0.0,0.0,0.0,0.0,-0.0053660416653676,-0.02003147078945,0.0062223168237564,0.0,0.0,0.0,0.0,0.0,0.0,0.0,0.0,0.0,-0.19992850949876,0.10683809935286,10.311845419637,0.0,0.0,0.0,0.0,0.0,0.0,0.0,0.0,0.0
1317398087989665985,0,1317398087989665985,imu_link,0.00426943617201539,0.014588772000098537,0.7741507448846376,0.6328187448557946,0.0,0.0,0.0,0.0,0.0,0.0,0.0,0.0,0.0,-0.016489082533458,0.011909577773061,0.0057117514648195,0.0,0.0,0.0,0.0,0.0,0.0,0.0,0.0,0.0,-0.08283120066114,0.15440470417271,10.110208908375,0.0,0.0,0.0,0.0,0.0,0.0,0.0,0.0,0.0
1317398088089498043,0,1317398088089498043,imu_link,0.002474997456278949,0.015504246213473755,0.7743370050197711,0.6325786080748813,0.0,0.0,0.0,0.0,0.0,0.0,0.0,0.0,0.0,-0.0097098074590974,0.035453156366853,0.0064933105590296,0.0,0.0,0.0,0.0,0.0,0.0,0.0,0.0,0.0,-0.17850730160556,0.011572252264206,9.7481246852515,0.0,0.0,0.0,0.0,0.0,0.0,0.0,0.0,0.0
1317398088199479103,0,1317398088199479103,imu_link,0.00027945675872750875,0.016320154342529612,0.7745500615232009,0.6323019663582915,0.0,0.0,0.0,0.0,0.0,0.0,0.0,0.0,0.0,-0.012040264717133,0.037790622774782,0.0069205117533301,0.0,0.0,0.0,0.0,0.0,0.0,0.0,0.0,0.0,-0.32563912325148,0.1395459350934,9.6000542005285,0.0,0.0,0.0,0.0,0.0,0.0,0.0,0.0,0.0
1317398088299508094,0,1317398088299508094,imu_link,-0.0005165221638174329,0.016265382116737327,0.7746808393474358,0.6321429962416756,0.0,0.0,0.0,0.0,0.0,0.0,0.0,0.0,0.0,-0.0086794300646502,0.011313495953794,0.0048097313651058,0.0,0.0,0.0,0.0,0.0,0.0,0.0,0.0,0.0,-0.50914925796659,-0.0066221618765765,9.0321115493933,0.0,0.0,0.0,0.0,0.0,0.0,0.0,0.0,0.0
1317398088409467935,0,1317398088409467935,imu_link,0.00046359214340376594,0.015560281161910987,0.7748615487502563,0.63193927160831,0.0,0.0,0.0,0.0,0.0,0.0,0.0,0.0,0.0,0.0017879352589729,-0.015146836033857,0.0049100603119966,0.0,0.0,0.0,0.0,0.0,0.0,0.0,0.0,0.0,-0.52899823631867,-0.0337075294941,9.7812992933096,0.0,0.0,0.0,0.0,0.0,0.0,0.0,0.0,0.0
1317398088509558916,0,1317398088509558916,imu_link,0.000931744416611876,0.015312666381863786,0.7750525474384238,0.6317105372002509,0.0,0.0,0.0,0.0,0.0,0.0,0.0,0.0,0.0,0.00018995106901197,-0.0084558610271556,0.0052345536783012,0.0,0.0,0.0,0.0,0.0,0.0,0.0,0.0,0.0,-0.6477980628075,-0.014181127734058,10.043582168816,0.0,0.0,0.0,0.0,0.0,0.0,0.0,0.0,0.0
1317398088619462966,0,1317398088619462966,imu_link,0.0009682788648642093,0.015544823839879087,0.7752156688720898,0.6315046220124009,0.0,0.0,0.0,0.0,0.0,0.0,0.0,0.0,0.0,0.0041613814274542,0.0017014253711793,0.0047954345169195,0.0,0.0,0.0,0.0,0.0,0.0,0.0,0.0,0.0,-1.1291672940537,0.034933487451843,10.057993821006,0.0,0.0,0.0,0.0,0.0,0.0,0.0,0.0,0.0
1317398088719444036,0,1317398088719444036,imu_link,0.0012861232632153307,0.016084650525737418,0.7754197489767273,0.6312399249107157,0.0,0.0,0.0,0.0,0.0,0.0,0.0,0.0,0.0,0.010849945279138,0.003232346455487,0.0066036078609084,0.0,0.0,0.0,0.0,0.0,0.0,0.0,0.0,0.0,-1.3022072528897,0.025458462272691,9.8287479492477,0.0,0.0,0.0,0.0,0.0,0.0,0.0,0.0,0.0
1317398088819473028,0,1317398088819473028,imu_link,0.0011905850427003824,0.017110835092830134,0.7756008010147357,0.6309906491343451,0.0,0.0,0.0,0.0,0.0,0.0,0.0,0.0,0.0,0.015259873438104,0.014244526657182,0.0065247212941268,0.0,0.0,0.0,0.0,0.0,0.0,0.0,0.0,0.0,-1.6316230823251,0.27615991267531,10.009464660383,0.0,0.0,0.0,0.0,0.0,0.0,0.0,0.0,0.0
1317398088929492950,0,1317398088929492950,imu_link,0.00010463104504264929,0.017930504160187072,0.7757535985031301,0.6307811351668264,0.0,0.0,0.0,0.0,0.0,0.0,0.0,0.0,0.0,0.0020372499420028,0.023237131769927,0.0050572465321349,0.0,0.0,0.0,0.0,0.0,0.0,0.0,0.0,0.0,-1.6724297519666,0.18779809187912,9.8243118514271,0.0,0.0,0.0,0.0,0.0,0.0,0.0,0.0,0.0
1317398089029623031,0,1317398089029623031,imu_link,-0.00016220026718420308,0.018647105122838868,0.7760301537265105,0.6304200660423329,0.0,0.0,0.0,0.0,0.0,0.0,0.0,0.0,0.0,0.0085033768217023,0.012646832844554,0.0086909832789561,0.0,0.0,0.0,0.0,0.0,0.0,0.0,0.0,0.0,-1.9114261636443,-0.0095379322520913,9.5194715404344,0.0,0.0,0.0,0.0,0.0,0.0,0.0,0.0,0.0
1317398089139467000,0,1317398089139467000,imu_link,0.0001887614516204797,0.019076373478768813,0.7767058490242512,0.6295745233374125,0.0,0.0,0.0,0.0,0.0,0.0,0.0,0.0,0.0,0.010361512525462,3.6335646658241e-05,0.019731748769559,0.0,0.0,0.0,0.0,0.0,0.0,0.0,0.0,0.0,-2.0538744006946,0.081724597442596,9.7293698727006,0.0,0.0,0.0,0.0,0.0,0.0,0.0,0.0,0.0
1317398089239500045,0,1317398089239500045,imu_link,0.0006865486374565966,0.019234067223454318,0.7776857197972956,0.6283585763975649,0.0,0.0,0.0,0.0,0.0,0.0,0.0,0.0,0.0,0.007639812650195,-0.0050355240128466,0.029701922686408,0.0,0.0,0.0,0.0,0.0,0.0,0.0,0.0,0.0,-2.1394821826211,0.27063742282813,9.7731857794143,0.0,0.0,0.0,0.0,0.0,0.0,0.0,0.0,0.0
1317398089339464902,0,1317398089339464902,imu_link,0.0010268528015989781,0.018937674380849565,0.7787324176475339,0.6270694792183685,0.0,0.0,0.0,0.0,0.0,0.0,0.0,0.0,0.0,0.0023261172175048,-0.0089926801901051,0.031895868216962,0.0,0.0,0.0,0.0,0.0,0.0,0.0,0.0,0.0,-2.166103300059,0.23920787275876,9.7516411312064,0.0,0.0,0.0,0.0,0.0,0.0,0.0,0.0,0.0
1317398089449558973,0,1317398089449558973,imu_link,0.0012227010777763076,0.01904385814190205,0.7797550564756198,0.6257938065927533,0.0,0.0,0.0,0.0,0.0,0.0,0.0,0.0,0.0,0.00095003497671888,-0.0010263738294252,0.030487539670748,0.0,0.0,0.0,0.0,0.0,0.0,0.0,0.0,0.0,-2.2021777241376,0.27134318931636,10.030218314833,0.0,0.0,0.0,0.0,0.0,0.0,0.0,0.0,0.0
1317398089549647092,0,1317398089549647092,imu_link,0.000357118624620862,0.019162489619431254,0.7807158041529259,0.6245922706884254,0.0,0.0,0.0,0.0,0.0,0.0,0.0,0.0,0.0,-0.0068046162599081,0.010602757751225,0.030506817564461,0.0,0.0,0.0,0.0,0.0,0.0,0.0,0.0,0.0,-2.2305627799324,0.30711256414455,9.877430261005,0.0,0.0,0.0,0.0,0.0,0.0,0.0,0.0,0.0
1317398089659482955,0,1317398089659482955,imu_link,-0.00032914376545532115,0.019086914420628088,0.7817234715435666,0.6233329731372759,0.0,0.0,0.0,0.0,0.0,0.0,0.0,0.0,0.0,-0.0071026607777368,0.0098488498912158,0.029699004419933,0.0,0.0,0.0,0.0,0.0,0.0,0.0,0.0,0.0,-2.2898116134904,0.21511146271942,9.8068138085318,0.0,0.0,0.0,0.0,0.0,0.0,0.0,0.0,0.0
1317398089759433984,0,1317398089759433984,imu_link,-0.0011568447151014023,0.019246033352072346,0.7826068854549014,0.6222175783028754,0.0,0.0,0.0,0.0,0.0,0.0,0.0,0.0,0.0,-0.0068047371795819,0.011777339656969,0.029394903824509,0.0,0.0,0.0,0.0,0.0,0.0,0.0,0.0,0.0,-2.4127838788484,0.18870229297558,9.5085464388329,0.0,0.0,0.0,0.0,0.0,0.0,0.0,0.0,0.0
1317398089869589090,0,1317398089869589090,imu_link,-0.0019800299143446828,0.018929142831955965,0.7835146335509582,0.6210817869207675,0.0,0.0,0.0,0.0,0.0,0.0,0.0,0.0,0.0,-0.012324077787039,0.0071095040134492,0.02716465709319,0.0,0.0,0.0,0.0,0.0,0.0,0.0,0.0,0.0,-2.5167201728327,0.30769822168319,9.8339325967812,0.0,0.0,0.0,0.0,0.0,0.0,0.0,0.0,0.0
1317398089969526052,0,1317398089969526052,imu_link,-0.002805809254781232,0.018341004396141974,0.784255795619844,0.6201601261197401,0.0,0.0,0.0,0.0,0.0,0.0,0.0,0.0,0.0,-0.018019748430628,0.0057823058061404,0.02522228349443,0.0,0.0,0.0,0.0,0.0,0.0,0.0,0.0,0.0,-2.5694492788022,0.24616928281143,9.8538016637295,0.0,0.0,0.0,0.0,0.0,0.0,0.0,0.0,0.0
1317398090069453954,0,1317398090069453954,imu_link,-0.003051023794388313,0.017359103184020303,0.7850846772372239,0.6191376279614873,0.0,0.0,0.0,0.0,0.0,0.0,0.0,0.0,0.0,-0.017815515703571,-0.0080848961878153,0.026439116979529,0.0,0.0,0.0,0.0,0.0,0.0,0.0,0.0,0.0,-2.7937992487879,0.18328732810374,9.6305544472005,0.0,0.0,0.0,0.0,0.0,0.0,0.0,0.0,0.0
1317398090179425954,0,1317398090179425954,imu_link,-0.0021432988782746874,0.015582600590793307,0.7859466515069152,0.6180942078791984,0.0,0.0,0.0,0.0,0.0,0.0,0.0,0.0,0.0,-0.014383686971935,-0.030871593617207,0.024849426609986,0.0,0.0,0.0,0.0,0.0,0.0,0.0,0.0,0.0,-2.8528991099909,0.16580746928025,9.7114468019045,0.0,0.0,0.0,0.0,0.0,0.0,0.0,0.0,0.0
1317398090279436111,0,1317398090279436111,imu_link,-0.001416078138599188,0.013465159234065077,0.7867068620161389,0.6171782542071832,0.0,0.0,0.0,0.0,0.0,0.0,0.0,0.0,0.0,-0.023432548619255,-0.035773206666636,0.024291229710791,0.0,0.0,0.0,0.0,0.0,0.0,0.0,0.0,0.0,-2.8032918581977,0.22224193043112,9.8125512042764,0.0,0.0,0.0,0.0,0.0,0.0,0.0,0.0,0.0
1317398090389451026,0,1317398090389451026,imu_link,-0.001013948839758353,0.011701822051264875,0.7874298329965296,0.6162923797804809,0.0,0.0,0.0,0.0,0.0,0.0,0.0,0.0,0.0,-0.020942333621895,-0.025929744802131,0.019046362257893,0.0,0.0,0.0,0.0,0.0,0.0,0.0,0.0,0.0,-2.7397381172932,-0.031378392493353,10.037769298754,0.0,0.0,0.0,0.0,0.0,0.0,0.0,0.0,0.0
1317398090489729881,0,1317398090489729881,imu_link,-0.001049403492906456,0.010700458622773794,0.7877393478571433,0.6159148632523607,0.0,0.0,0.0,0.0,0.0,0.0,0.0,0.0,0.0,-0.019153835764968,-0.014141467680838,0.0096959906762472,0.0,0.0,0.0,0.0,0.0,0.0,0.0,0.0,0.0,-2.557552620683,0.11595804108042,10.181742985505,0.0,0.0,0.0,0.0,0.0,0.0,0.0,0.0,0.0
1317398090589430093,0,1317398090589430093,imu_link,-0.0019670223149093353,0.009922669118731579,0.7875459828442554,0.6161728624068481,0.0,0.0,0.0,0.0,0.0,0.0,0.0,0.0,0.0,-0.02276385274217,0.00220221838841,-0.0056723480064569,0.0,0.0,0.0,0.0,0.0,0.0,0.0,0.0,0.0,-2.2593266446004,0.08269256508094,10.067217702465,0.0,0.0,0.0,0.0,0.0,0.0,0.0,0.0,0.0
1317398090699426889,0,1317398090699426889,imu_link,-0.003881691003479897,0.008997261006684704,0.7866710389219598,0.6172946284318175,0.0,0.0,0.0,0.0,0.0,0.0,0.0,0.0,0.0,-0.034736227121082,0.015363246872124,-0.025760408224599,0.0,0.0,0.0,0.0,0.0,0.0,0.0,0.0,0.0,-2.1529739926978,-0.00148185787824,9.852537808805,0.0,0.0,0.0,0.0,0.0,0.0,0.0,0.0,0.0
1317398090799473047,0,1317398090799473047,imu_link,-0.005406319045437294,0.008429085353666448,0.7851186275336917,0.6192644531491305,0.0,0.0,0.0,0.0,0.0,0.0,0.0,0.0,0.0,-0.027424164754945,0.016688367764738,-0.047902488481867,0.0,0.0,0.0,0.0,0.0,0.0,0.0,0.0,0.0,-2.0872813989196,-0.309937247984,9.7456105192673,0.0,0.0,0.0,0.0,0.0,0.0,0.0,0.0,0.0
1317398090909435033,0,1317398090909435033,imu_link,-0.006485788658359831,0.008724174061188732,0.7827646391908454,0.6222229045646381,0.0,0.0,0.0,0.0,0.0,0.0,0.0,0.0,0.0,-0.009001465004041,0.019371223515895,-0.067675437489771,0.0,0.0,0.0,0.0,0.0,0.0,0.0,0.0,0.0,-1.9569307540906,-0.53247178602551,9.6897483788716,0.0,0.0,0.0,0.0,0.0,0.0,0.0,0.0,0.0
1317398091009524106,0,1317398091009524106,imu_link,-0.007469492921462675,0.009572894801491755,0.7799323865951364,0.6257459857646958,0.0,0.0,0.0,0.0,0.0,0.0,0.0,0.0,0.0,-0.0013099047849727,0.024419627361054,-0.089018223109668,0.0,0.0,0.0,0.0,0.0,0.0,0.0,0.0,0.0,-1.9505209263738,-0.36603784347977,9.792047157572,0.0,0.0,0.0,0.0,0.0,0.0,0.0,0.0,0.0
1317398091119411945,0,1317398091119411945,imu_link,-0.008047600584688097,0.010218775799883591,0.7760547329505899,0.6305314141349102,0.0,0.0,0.0,0.0,0.0,0.0,0.0,0.0,0.0,0.00060452157848782,0.014918795569854,-0.11058914116835,0.0,0.0,0.0,0.0,0.0,0.0,0.0,0.0,0.0,-1.9815877866465,-0.482421061617,9.7489338266991,0.0,0.0,0.0,0.0,0.0,0.0,0.0,0.0,0.0
1317398091219418048,0,1317398091219418048,imu_link,-0.008053335018415401,0.010532874285923323,0.7720179606626254,0.6354624070459863,0.0,0.0,0.0,0.0,0.0,0.0,0.0,0.0,0.0,0.003199736249347,0.0050962975157883,-0.12549220236193,0.0,0.0,0.0,0.0,0.0,0.0,0.0,0.0,0.0,-1.8061203516563,-0.56176733278827,9.7575763095447,0.0,0.0,0.0,0.0,0.0,0.0,0.0,0.0,0.0
1317398091329417943,0,1317398091329417943,imu_link,-0.007860113607594147,0.010378071169696138,0.766946622255335,0.6415788282541787,0.0,0.0,0.0,0.0,0.0,0.0,0.0,0.0,0.0,-0.0037859932516716,-0.0042009261088555,-0.14445119273262,0.0,0.0,0.0,0.0,0.0,0.0,0.0,0.0,0.0,-1.3029634242664,-0.63190473877073,9.7557259821081,0.0,0.0,0.0,0.0,0.0,0.0,0.0,0.0,0.0
1317398091429425001,0,1317398091429425001,imu_link,-0.006644672227563624,0.010005862964845192,0.7614568633225314,0.6481042943356637,0.0,0.0,0.0,0.0,0.0,0.0,0.0,0.0,0.0,0.0037058815396005,-0.020700878538621,-0.16977819221973,0.0,0.0,0.0,0.0,0.0,0.0,0.0,0.0,0.0,-0.7702643149515,-0.67931734233579,9.5799814997051,0.0,0.0,0.0,0.0,0.0,0.0,0.0,0.0,0.0
1317398091529438972,0,1317398091529438972,imu_link,-0.0050671468238349705,0.008844696924734392,0.754956345384038,0.6556958227133618,0.0,0.0,0.0,0.0,0.0,0.0,0.0,0.0,0.0,0.0015188387976228,-0.036117668923856,-0.19835195847821,0.0,0.0,0.0,0.0,0.0,0.0,0.0,0.0,0.0,-0.6009344513883,-0.78547903898434,9.5751140069021,0.0,0.0,0.0,0.0,0.0,0.0,0.0,0.0,0.0
1317398091639468908,0,1317398091639468908,imu_link,-0.0026665308223023593,0.008052350131833527,0.7465487839376487,0.6652766059857703,0.0,0.0,0.0,0.0,0.0,0.0,0.0,0.0,0.0,0.016003652378084,-0.039197513455331,-0.22953094388962,0.0,0.0,0.0,0.0,0.0,0.0,0.0,0.0,0.0,-0.63078610394899,-0.94593896839984,9.9385496378908,0.0,0.0,0.0,0.0,0.0,0.0,0.0,0.0,0.0
1317398091739422082,0,1317398091739422082,imu_link,-0.0011760651172431835,0.008045058775097844,0.7378713969083163,0.674892358472605,0.0,0.0,0.0,0.0,0.0,0.0,0.0,0.0,0.0,0.018168406816553,-0.022108285928894,-0.25677274398308,0.0,0.0,0.0,0.0,0.0,0.0,0.0,0.0,0.0,-0.65334234638835,-0.96348689100937,10.011680755226,0.0,0.0,0.0,0.0,0.0,0.0,0.0,0.0,0.0
1317398091849543094,0,1317398091849543094,imu_link,-3.5320020491443754e-05,0.00865841943427724,0.7271687844575816,0.68640410068405,0.0,0.0,0.0,0.0,0.0,0.0,0.0,0.0,0.0,0.019930935689734,-0.0084237147446149,-0.28462095283576,0.0,0.0,0.0,0.0,0.0,0.0,0.0,0.0,0.0,-0.60591338001407,-1.062061187075,9.893636325523,0.0,0.0,0.0,0.0,0.0,0.0,0.0,0.0,0.0
1317398091949455976,0,1317398091949455976,imu_link,0.0010863172115523267,0.009025766883358016,0.7164507112811661,0.6975784785612257,0.0,0.0,0.0,0.0,0.0,0.0,0.0,0.0,0.0,0.018132703115645,-0.009229508698882,-0.3083594611979,0.0,0.0,0.0,0.0,0.0,0.0,0.0,0.0,0.0,-0.36561675062982,-1.0372634248075,9.666041931644,0.0,0.0,0.0,0.0,0.0,0.0,0.0,0.0,0.0
1317398092059441089,0,1317398092059441089,imu_link,0.002505725480889303,0.009453521580309696,0.7031408200638257,0.710983360866846,0.0,0.0,0.0,0.0,0.0,0.0,0.0,0.0,0.0,0.022979112900958,-0.0046094638690521,-0.34249276162027,0.0,0.0,0.0,0.0,0.0,0.0,0.0,0.0,0.0,-0.36757140210848,-1.2215975662073,10.054417101849,0.0,0.0,0.0,0.0,0.0,0.0,0.0,0.0,0.0
1317398092159377098,0,1317398092159377098,imu_link,0.003573548382501364,0.010451218637154938,0.6897524257394463,0.7239610438190068,0.0,0.0,0.0,0.0,0.0,0.0,0.0,0.0,0.0,0.027311183390338,0.0027367462006237,-0.36953916117529,0.0,0.0,0.0,0.0,0.0,0.0,0.0,0.0,0.0,-0.42902623321114,-1.4284411543068,9.9026406773885,0.0,0.0,0.0,0.0,0.0,0.0,0.0,0.0,0.0
1317398092269391059,0,1317398092269391059,imu_link,0.004550833516552213,0.011050085282924399,0.6739181707902863,0.7387093370252058,0.0,0.0,0.0,0.0,0.0,0.0,0.0,0.0,0.0,0.016699758956244,-0.00071128369383704,-0.39200666123522,0.0,0.0,0.0,0.0,0.0,0.0,0.0,0.0,0.0,-0.41142953761633,-1.2752663001552,9.7039655084593,0.0,0.0,0.0,0.0,0.0,0.0,0.0,0.0,0.0
1317398092369493961,0,1317398092369493961,imu_link,0.004554593027258922,0.010563481842462176,0.6585598116174867,0.7524404581467297,0.0,0.0,0.0,0.0,0.0,0.0,0.0,0.0,0.0,-0.0091373647041699,-0.00139602018202,-0.41188854388206,0.0,0.0,0.0,0.0,0.0,0.0,0.0,0.0,0.0,-0.38940178920626,-1.1834704946284,9.720968462829,0.0,0.0,0.0,0.0,0.0,0.0,0.0,0.0,0.0
1317398092469645977,0,1317398092469645977,imu_link,0.0036056781103153434,0.009593051751993592,0.6417095515524112,0.7668792759553825,0.0,0.0,0.0,0.0,0.0,0.0,0.0,0.0,0.0,-0.023033411758889,0.0027698578709246,-0.44131819440253,0.0,0.0,0.0,0.0,0.0,0.0,0.0,0.0,0.0,-0.21166404035656,-1.4146559992994,9.6811771032602,0.0,0.0,0.0,0.0,0.0,0.0,0.0,0.0,0.0
1317398092579394102,0,1317398092579394102,imu_link,0.002898385916386842,0.009783004321242392,0.622229409086553,0.7827684553259215,0.0,0.0,0.0,0.0,0.0,0.0,0.0,0.0,0.0,-0.013842105757937,0.014021293133144,-0.45449952288974,0.0,0.0,0.0,0.0,0.0,0.0,0.0,0.0,0.0,-0.25902194113682,-1.8669674912267,9.7628755617397,0.0,0.0,0.0,0.0,0.0,0.0,0.0,0.0,0.0
1317398092679374933,0,1317398092679374933,imu_link,0.002342315505970703,0.010235298489648072,0.6039614026127846,0.7969443998027064,0.0,0.0,0.0,0.0,0.0,0.0,0.0,0.0,0.0,-0.0051380185265289,0.016032582738504,-0.46344340547443,0.0,0.0,0.0,0.0,0.0,0.0,0.0,0.0,0.0,-0.28721955814954,-1.5750019016735,9.8761019911714,0.0,0.0,0.0,0.0,0.0,0.0,0.0,0.0,0.0
1317398092789361000,0,1317398092789361000,imu_link,0.0028319053195216323,0.010483761791379848,0.5827796669056873,0.8125576477347679,0.0,0.0,0.0,0.0,0.0,0.0,0.0,0.0,0.0,0.0051257821897766,0.0019775929847993,-0.47721954482343,0.0,0.0,0.0,0.0,0.0,0.0,0.0,0.0,0.0,-0.32452332105122,-1.669240520306,9.8770417503769,0.0,0.0,0.0,0.0,0.0,0.0,0.0,0.0,0.0
1317398092889386892,0,1317398092889386892,imu_link,0.003446681671680293,0.009845806531668545,0.563262199832731,0.8262123665975883,0.0,0.0,0.0,0.0,0.0,0.0,0.0,0.0,0.0,-0.0013988394985754,-0.011572463397451,-0.47606757471467,0.0,0.0,0.0,0.0,0.0,0.0,0.0,0.0,0.0,-0.20547067266114,-1.6500027447911,9.8208165852429,0.0,0.0,0.0,0.0,0.0,0.0,0.0,0.0,0.0
1317398092999448060,0,1317398092999448060,imu_link,0.004045748090090253,0.008305162975282637,0.5412376961691958,0.8408188939574366,0.0,0.0,0.0,0.0,0.0,0.0,0.0,0.0,0.0,-0.0081400882815093,-0.025935037494887,-0.4816163665426,0.0,0.0,0.0,0.0,0.0,0.0,0.0,0.0,0.0,0.30535708187145,-1.4300689381409,9.4881891470978,0.0,0.0,0.0,0.0,0.0,0.0,0.0,0.0,0.0
1317398093099374055,0,1317398093099374055,imu_link,0.003952016774773748,0.0058174496927889795,0.520316009585036,0.8539448395604883,0.0,0.0,0.0,0.0,0.0,0.0,0.0,0.0,0.0,-0.027139030897813,-0.036280968184786,-0.49343641687281,0.0,0.0,0.0,0.0,0.0,0.0,0.0,0.0,0.0,0.41159463010937,-1.4711534927705,9.5287844783752,0.0,0.0,0.0,0.0,0.0,0.0,0.0,0.0,0.0
1317398093209357976,0,1317398093209357976,imu_link,0.0029306524563490585,0.002712741467559228,0.4962023070429209,0.8681977440624878,0.0,0.0,0.0,0.0,0.0,0.0,0.0,0.0,0.0,-0.04690745585778,-0.036783780215097,-0.50875363375768,0.0,0.0,0.0,0.0,0.0,0.0,0.0,0.0,0.0,0.39560133251823,-1.5269292995613,9.6303012757235,0.0,0.0,0.0,0.0,0.0,0.0,0.0,0.0,0.0
1317398093309374094,0,1317398093309374094,imu_link,0.0016137372954443628,0.000476228770527161,0.4731544531402473,0.8809778842466212,0.0,0.0,0.0,0.0,0.0,0.0,0.0,0.0,0.0,-0.0388807987223,-0.025413193067573,-0.52548722181571,0.0,0.0,0.0,0.0,0.0,0.0,0.0,0.0,0.0,0.34793219337339,-1.8888894816531,10.20228537106,0.0,0.0,0.0,0.0,0.0,0.0,0.0,0.0,0.0
1317398093409389019,0,1317398093409389019,imu_link,0.001620244864555323,-7.605151324465212e-05,0.4496671258822584,0.8931947407612382,0.0,0.0,0.0,0.0,0.0,0.0,0.0,0.0,0.0,-0.0058516534442309,-0.0099831791618975,-0.52805767857254,0.0,0.0,0.0,0.0,0.0,0.0,0.0,0.0,0.0,0.35284058369099,-2.49898749182,10.196221979846,0.0,0.0,0.0,0.0,0.0,0.0,0.0,0.0,0.0
1317398093519603013,0,1317398093519603013,imu_link,0.002599570446478552,0.0009424613438433587,0.42377956948850826,0.905761133237811,0.0,0.0,0.0,0.0,0.0,0.0,0.0,0.0,0.0,0.017462478945668,0.0094814433386579,-0.52450142571746,0.0,0.0,0.0,0.0,0.0,0.0,0.0,0.0,0.0,0.49671682316765,-1.8785587900108,10.012342912475,0.0,0.0,0.0,0.0,0.0,0.0,0.0,0.0,0.0
1317398093619369983,0,1317398093619369983,imu_link,0.0016443946076361688,0.0020693803848708062,0.39935366613357126,0.9167931407776093,0.0,0.0,0.0,0.0,0.0,0.0,0.0,0.0,0.0,-0.0032903257591625,0.023450475058824,-0.53581672849819,0.0,0.0,0.0,0.0,0.0,0.0,0.0,0.0,0.0,0.55362548084132,-1.4929806768146,9.5374951242555,0.0,0.0,0.0,0.0,0.0,0.0,0.0,0.0,0.0
1317398093729367017,0,1317398093729367017,imu_link,0.0008004175126678489,0.0029055173859767382,0.37186562854764327,0.9282816768661286,0.0,0.0,0.0,0.0,0.0,0.0,0.0,0.0,0.0,-0.012003742829082,0.022085495460184,-0.54014042939905,0.0,0.0,0.0,0.0,0.0,0.0,0.0,0.0,0.0,0.39525476735359,-2.1411417976649,9.8701746318165,0.0,0.0,0.0,0.0,0.0,0.0,0.0,0.0,0.0
1317398093829355955,0,1317398093829355955,imu_link,0.00023063338497904826,0.003886589305880935,0.34673957534898486,0.9379533613771075,0.0,0.0,0.0,0.0,0.0,0.0,0.0,0.0,0.0,-0.0011943153561774,0.025846156207334,-0.53979314673612,0.0,0.0,0.0,0.0,0.0,0.0,0.0,0.0,0.0,0.49430283498809,-2.0735260507669,10.397853574248,0.0,0.0,0.0,0.0,0.0,0.0,0.0,0.0,0.0
1317398093939351081,0,1317398093939351081,imu_link,-2.858882283579057e-05,0.005999537385482725,0.3181039745051556,0.9480368485126844,0.0,0.0,0.0,0.0,0.0,0.0,0.0,0.0,0.0,-0.0037119983739226,0.034018234089839,-0.55004187546458,0.0,0.0,0.0,0.0,0.0,0.0,0.0,0.0,0.0,0.50365513537526,-1.8917088671341,9.4475741175034,0.0,0.0,0.0,0.0,0.0,0.0,0.0,0.0,0.0
1317398094039438009,0,1317398094039438009,imu_link,-0.002105187980445547,0.006126228043191318,0.2920080371356958,0.9563939270832327,0.0,0.0,0.0,0.0,0.0,0.0,0.0,0.0,0.0,-0.036407014933257,0.016784013923027,-0.54725262927707,0.0,0.0,0.0,0.0,0.0,0.0,0.0,0.0,0.0,0.53249677917656,-1.8918010105064,9.5039165573235,0.0,0.0,0.0,0.0,0.0,0.0,0.0,0.0,0.0
1317398094139372110,0,1317398094139372110,imu_link,-0.004160277258922861,0.00402126408731885,0.266643901864445,0.9637777498608137,0.0,0.0,0.0,0.0,0.0,0.0,0.0,0.0,0.0,-0.052876428975241,-0.02669924738463,-0.52999894513365,0.0,0.0,0.0,0.0,0.0,0.0,0.0,0.0,0.0,0.62505534472446,-2.0545169487792,8.8711025895413,0.0,0.0,0.0,0.0,0.0,0.0,0.0,0.0,0.0
1317398094249499082,0,1317398094249499082,imu_link,-0.004473086459803773,0.0007814633528695984,0.23937853388393093,0.9709157009381046,0.0,0.0,0.0,0.0,0.0,0.0,0.0,0.0,0.0,-0.023270024255023,-0.047662554948327,-0.51340892283197,0.0,0.0,0.0,0.0,0.0,0.0,0.0,0.0,0.0,0.87918600048494,-2.2501287373877,9.9019529786801,0.0,0.0,0.0,0.0,0.0,0.0,0.0,0.0,0.0
1317398094349488973,0,1317398094349488973,imu_link,-0.004337286093115614,-0.0006353345015030589,0.21644134132846995,0.9762857829874153,0.0,0.0,0.0,0.0,0.0,0.0,0.0,0.0,0.0,-0.00463997498656,-0.030293309007718,-0.47430093493693,0.0,0.0,0.0,0.0,0.0,0.0,0.0,0.0,0.0,0.97268584999097,-2.2545435060904,10.434178759589,0.0,0.0,0.0,0.0,0.0,0.0,0.0,0.0,0.0
1317398094459561109,0,1317398094459561109,imu_link,-0.001493398459443293,-0.0007573048989658832,0.19411985234855197,0.9809763907324721,0.0,0.0,0.0,0.0,0.0,0.0,0.0,0.0,0.0,0.046922638148141,-0.016052691433186,-0.41674565007949,0.0,0.0,0.0,0.0,0.0,0.0,0.0,0.0,0.0,1.0820525156889,-2.3626448401043,9.900164637142,0.0,0.0,0.0,0.0,0.0,0.0,0.0,0.0,0.0
1317398094559371948,0,1317398094559371948,imu_link,0.0019736358503183037,-0.0007381017173988614,0.17684767160446788,0.9842359783179353,0.0,0.0,0.0,0.0,0.0,0.0,0.0,0.0,0.0,0.062755826147607,-0.014305221148943,-0.35685953359064,0.0,0.0,0.0,0.0,0.0,0.0,0.0,0.0,0.0,1.1558140187142,-1.73752933829,9.4231406614456,0.0,0.0,0.0,0.0,0.0,0.0,0.0,0.0,0.0
1317398094669327974,0,1317398094669327974,imu_link,0.0042844046900598395,-0.0016629188842773846,0.16050046819125535,0.9870250646704084,0.0,0.0,0.0,0.0,0.0,0.0,0.0,0.0,0.0,0.034459782854237,-0.020268854991441,-0.30547942053858,0.0,0.0,0.0,0.0,0.0,0.0,0.0,0.0,0.0,1.3462260893259,-0.88310020839701,10.015125324827,0.0,0.0,0.0,0.0,0.0,0.0,0.0,0.0,0.0
1317398094769328117,0,1317398094769328117,imu_link,0.0029500917484130956,-0.0009641728178237385,0.14687206727056332,0.9891506271469095,0.0,0.0,0.0,0.0,0.0,0.0,0.0,0.0,0.0,-0.022947240111867,0.016468627848363,-0.2777127637637,0.0,0.0,0.0,0.0,0.0,0.0,0.0,0.0,0.0,1.5096482259029,-0.76153321935898,10.346428134704,0.0,0.0,0.0,0.0,0.0,0.0,0.0,0.0,0.0
1317398094869486093,0,1317398094869486093,imu_link,-0.0008967186847820525,0.0006326635250078733,0.13447108705974659,0.9909169099260718,0.0,0.0,0.0,0.0,0.0,0.0,0.0,0.0,0.0,-0.061263644232616,0.035156376396239,-0.25284464297678,0.0,0.0,0.0,0.0,0.0,0.0,0.0,0.0,0.0,1.5602785911115,-1.103271911123,9.3441014030888,0.0,0.0,0.0,0.0,0.0,0.0,0.0,0.0,0.0
1317398094979481935,0,1317398094979481935,imu_link,-0.004012099817842312,0.0022045918321450214,0.12170881875192573,0.9925552912900701,0.0,0.0,0.0,0.0,0.0,0.0,0.0,0.0,0.0,-0.0526156138982,0.038822590414535,-0.2337350589712,0.0,0.0,0.0,0.0,0.0,0.0,0.0,0.0,0.0,1.6177997318865,-1.4325242724583,10.40320285079,0.0,0.0,0.0,0.0,0.0,0.0,0.0,0.0,0.0
1317398095079386949,0,1317398095079386949,imu_link,-0.0028118121355447355,0.003683475524614826,0.11065587061429782,0.9938479783242334,0.0,0.0,0.0,0.0,0.0,0.0,0.0,0.0,0.0,0.018955302605014,0.023024385428621,-0.22078687036053,0.0,0.0,0.0,0.0,0.0,0.0,0.0,0.0,0.0,1.5862259530401,-1.7713670713104,9.6617461797666,0.0,0.0,0.0,0.0,0.0,0.0,0.0,0.0,0.0
1317398095179339885,0,1317398095179339885,imu_link,0.0006243279902047553,0.0038057318176874465,0.10072258227724791,0.9949070750775146,0.0,0.0,0.0,0.0,0.0,0.0,0.0,0.0,0.0,0.063798166773776,-0.0002524858400259,-0.19962492378871,0.0,0.0,0.0,0.0,0.0,0.0,0.0,0.0,0.0,1.649050985829,-1.4302627728611,9.5895619744453,0.0,0.0,0.0,0.0,0.0,0.0,0.0,0.0,0.0
1317398095289328098,0,1317398095289328098,imu_link,0.0033145873744223247,0.002833309737049062,0.09111478222901412,0.9958308502581301,0.0,0.0,0.0,0.0,0.0,0.0,0.0,0.0,0.0,0.038718623809634,-0.023749728265088,-0.17132759618432,0.0,0.0,0.0,0.0,0.0,0.0,0.0,0.0,0.0,1.7888285326122,-0.91619757354361,8.6501475194877,0.0,0.0,0.0,0.0,0.0,0.0,0.0,0.0,0.0
1317398095389322996,0,1317398095389322996,imu_link,0.004232301474028178,0.00013296758525373277,0.0841138483694512,0.9964471538703571,0.0,0.0,0.0,0.0,0.0,0.0,0.0,0.0,0.0,0.012900966134396,-0.051716894727829,-0.14398684457714,0.0,0.0,0.0,0.0,0.0,0.0,0.0,0.0,0.0,1.7875193239374,-0.14805949871674,9.4154170426288,0.0,0.0,0.0,0.0,0.0,0.0,0.0,0.0,0.0
1317398095499511957,0,1317398095499511957,imu_link,0.002793333748746648,-0.0026108900092580672,0.078072839859505,0.9969403253034756,0.0,0.0,0.0,0.0,0.0,0.0,0.0,0.0,0.0,-0.023887147874622,-0.043332656928147,-0.10987618811502,0.0,0.0,0.0,0.0,0.0,0.0,0.0,0.0,0.0,1.8529430603786,-0.9426381132264,10.247338610881,0.0,0.0,0.0,0.0,0.0,0.0,0.0,0.0,0.0
1317398095599435091,0,1317398095599435091,imu_link,0.0037853896702272367,-0.002858875161737997,0.07479955324527751,0.997187306624067,0.0,0.0,0.0,0.0,0.0,0.0,0.0,0.0,0.0,0.016522341173066,-0.0074392624496205,-0.068928544533041,0.0,0.0,0.0,0.0,0.0,0.0,0.0,0.0,0.0,1.8790224486794,-1.1151242264323,10.977206750422,0.0,0.0,0.0,0.0,0.0,0.0,0.0,0.0,0.0
1317398095699315071,0,1317398095699315071,imu_link,0.006414608039629971,-0.000545127768846937,0.07324643122049351,0.9972930943072227,0.0,0.0,0.0,0.0,0.0,0.0,0.0,0.0,0.0,0.044254738568889,0.032403416083603,-0.032597447283382,0.0,0.0,0.0,0.0,0.0,0.0,0.0,0.0,0.0,1.7569748317148,-0.36976389728459,9.7992538392792,0.0,0.0,0.0,0.0,0.0,0.0,0.0,0.0,0.0
1317398095809330940,0,1317398095809330940,imu_link,0.007746191610132077,0.00014412558720306953,0.07329196151087042,0.9972804340411194,0.0,0.0,0.0,0.0,0.0,0.0,0.0,0.0,0.0,0.029406750542269,0.0069100742467252,-0.00031904269817082,0.0,0.0,0.0,0.0,0.0,0.0,0.0,0.0,0.0,1.4878801068904,0.12613977719786,9.7193981521354,0.0,0.0,0.0,0.0,0.0,0.0,0.0,0.0,0.0
1317398095909323930,0,1317398095909323930,imu_link,0.007489266427079223,0.000549964404318712,0.0740976440093279,0.9972227171398599,0.0,0.0,0.0,0.0,0.0,0.0,0.0,0.0,0.0,-0.0023430831384319,0.0061079656681701,0.015592530147824,0.0,0.0,0.0,0.0,0.0,0.0,0.0,0.0,0.0,1.6746784050872,0.50821996225536,9.463668343075,0.0,0.0,0.0,0.0,0.0,0.0,0.0,0.0,0.0
1317398096019680976,0,1317398096019680976,imu_link,0.005229568071816439,0.0003550980307078038,0.07488117238634667,0.9971786878715455,0.0,0.0,0.0,0.0,0.0,0.0,0.0,0.0,0.0,-0.029171168825582,-0.00049402807908334,0.013669816969215,0.0,0.0,0.0,0.0,0.0,0.0,0.0,0.0,0.0,1.5657603261499,0.091520550121117,9.4957565581284,0.0,0.0,0.0,0.0,0.0,0.0,0.0,0.0,0.0
1317398096119311094,0,1317398096119311094,imu_link,0.005117238743000072,-0.0005662621727472113,0.07540333432064135,0.9971398248932435,0.0,0.0,0.0,0.0,0.0,0.0,0.0,0.0,0.0,-0.0089332394015552,-0.015805828736084,0.01286959720663,0.0,0.0,0.0,0.0,0.0,0.0,0.0,0.0,0.0,1.5745620473819,-0.055887780204977,9.9253090269132,0.0,0.0,0.0,0.0,0.0,0.0,0.0,0.0,0.0
1317398096219324111,0,1317398096219324111,imu_link,0.004873877048093907,-0.0008697376907259716,0.07576548461979248,0.9971133738042016,0.0,0.0,0.0,0.0,0.0,0.0,0.0,0.0,0.0,-0.005386791447105,-0.0084181150577859,0.0098977500282529,0.0,0.0,0.0,0.0,0.0,0.0,0.0,0.0,0.0,1.4996743658694,0.1136840468994,10.096122797688,0.0,0.0,0.0,0.0,0.0,0.0,0.0,0.0,0.0
1317398096329293966,0,1317398096329293966,imu_link,0.004752696965331013,-0.0006634948092502104,0.07604808852006839,0.9970926034620043,0.0,0.0,0.0,0.0,0.0,0.0,0.0,0.0,0.0,-0.0053900532546123,0.0023229067518191,0.008071917619422,0.0,0.0,0.0,0.0,0.0,0.0,0.0,0.0,0.0,1.3856438356739,0.16273536017118,9.8766861611062,0.0,0.0,0.0,0.0,0.0,0.0,0.0,0.0,0.0
1317398096429306030,0,1317398096429306030,imu_link,0.004022512867605252,-4.941114587538346e-05,0.07637851516493402,0.9970707795186702,0.0,0.0,0.0,0.0,0.0,0.0,0.0,0.0,0.0,-0.0095319046141058,0.010695244123352,0.0064748240064099,0.0,0.0,0.0,0.0,0.0,0.0,0.0,0.0,0.0,1.2261751963048,-0.013957099797905,9.8262768652069,0.0,0.0,0.0,0.0,0.0,0.0,0.0,0.0,0.0
1317398096539365053,0,1317398096539365053,imu_link,0.004423233937362175,0.0007145563187165184,0.07662903099597942,0.9970496055961409,0.0,0.0,0.0,0.0,0.0,0.0,0.0,0.0,0.0,0.005918692149021,0.013276795417434,0.0041569599304511,0.0,0.0,0.0,0.0,0.0,0.0,0.0,0.0,0.0,0.99802456896495,-0.10166492238771,9.9145462416929,0.0,0.0,0.0,0.0,0.0,0.0,0.0,0.0,0.0
1317398096639317035,0,1317398096639317035,imu_link,0.0047475605747655325,0.001798152854539047,0.07633089138427035,0.9970696175971783,0.0,0.0,0.0,0.0,0.0,0.0,0.0,0.0,0.0,0.003882725672279,0.020147050439565,-0.0038348461879386,0.0,0.0,0.0,0.0,0.0,0.0,0.0,0.0,0.0,0.7965024488652,0.16153160747628,9.814549655553,0.0,0.0,0.0,0.0,0.0,0.0,0.0,0.0,0.0
1317398096739305973,0,1317398096739305973,imu_link,0.003652073360872938,0.002455058361506167,0.07570910379365162,0.9971202368076634,0.0,0.0,0.0,0.0,0.0,0.0,0.0,0.0,0.0,-0.01629985872015,0.01120900363204,-0.0084416262535777,0.0,0.0,0.0,0.0,0.0,0.0,0.0,0.0,0.0,0.65759994269354,0.045872036464582,9.7406083361936,0.0,0.0,0.0,0.0,0.0,0.0,0.0,0.0,0.0
1317398096849419116,0,1317398096849419116,imu_link,0.0027914213573264355,0.0029236857317792115,0.07486182221222507,0.9971857237263342,0.0,0.0,0.0,0.0,0.0,0.0,0.0,0.0,0.0,-0.005656767283717,0.012931233865281,-0.012122057819749,0.0,0.0,0.0,0.0,0.0,0.0,0.0,0.0,0.0,0.90725424472509,-0.24718568801398,9.7164548711233,0.0,0.0,0.0,0.0,0.0,0.0,0.0,0.0,0.0
1317398096949486970,0,1317398096949486970,imu_link,0.0037646578886822786,0.004276443751022567,0.07414861573556501,0.9972309272000769,0.0,0.0,0.0,0.0,0.0,0.0,0.0,0.0,0.0,0.017123923858576,0.023906070484935,-0.010738495737338,0.0,0.0,0.0,0.0,0.0,0.0,0.0,0.0,0.0,0.76961820675727,-0.53496471280354,9.5552478289352,0.0,0.0,0.0,0.0,0.0,0.0,0.0,0.0,0.0
1317398097059369087,0,1317398097059369087,imu_link,0.00508067443589107,0.004994704433510196,0.0734455624931099,0.9972737783702974,0.0,0.0,0.0,0.0,0.0,0.0,0.0,0.0,0.0,0.025270084902762,0.011490212302107,-0.010952729830568,0.0,0.0,0.0,0.0,0.0,0.0,0.0,0.0,0.0,0.78200549310538,0.57588830068224,10.383475786447,0.0,0.0,0.0,0.0,0.0,0.0,0.0,0.0,0.0
1317398097159342050,0,1317398097159342050,imu_link,0.002882222717911621,0.005899477568359002,0.07249570220300021,0.9973471121523934,0.0,0.0,0.0,0.0,0.0,0.0,0.0,0.0,0.0,-0.035658345587367,0.015356002783361,-0.01587131309557,0.0,0.0,0.0,0.0,0.0,0.0,0.0,0.0,0.0,0.81645697321721,0.12337419146667,9.0890980151383,0.0,0.0,0.0,0.0,0.0,0.0,0.0,0.0,0.0
1317398097259280920,0,1317398097259280920,imu_link,0.0017213555062655192,0.0034059866056257906,0.07210558494396753,0.9973897035814796,0.0,0.0,0.0,0.0,0.0,0.0,0.0,0.0,0.0,-0.030833586064209,-0.040761940069078,-0.0088009501868486,0.0,0.0,0.0,0.0,0.0,0.0,0.0,0.0,0.0,0.7543908233622,-0.41244000439377,9.1759025404011,0.0,0.0,0.0,0.0,0.0,0.0,0.0,0.0,0.0
1317398097369410991,0,1317398097369410991,imu_link,0.0026778689717327857,0.0007807082878804762,0.07177052572268895,0.9974172703286364,0.0,0.0,0.0,0.0,0.0,0.0,0.0,0.0,0.0,0.0065789746648074,-0.045251786573523,-0.0081193751271862,0.0,0.0,0.0,0.0,0.0,0.0,0.0,0.0,0.0,0.5914888970867,-0.11028293115317,10.307771590405,0.0,0.0,0.0,0.0,0.0,0.0,0.0,0.0,0.0
1317398097469369888,0,1317398097469369888,imu_link,0.003143470559602915,-0.00011829590736116269,0.07142002355628696,0.9974413691210819,0.0,0.0,0.0,0.0,0.0,0.0,0.0,0.0,0.0,0.004424415804587,-0.020895687997205,-0.010518412330704,0.0,0.0,0.0,0.0,0.0,0.0,0.0,0.0,0.0,0.55105446640015,0.16255784637346,10.30147812881,0.0,0.0,0.0,0.0,0.0,0.0,0.0,0.0,0.0
1317398097579299926,0,1317398097579299926,imu_link,0.0011919610387328187,0.0008255928328229875,0.07090362272428483,0.9974821170877846,0.0,0.0,0.0,0.0,0.0,0.0,0.0,0.0,0.0,-0.02865594914972,0.016159400821837,-0.012740941796089,0.0,0.0,0.0,0.0,0.0,0.0,0.0,0.0,0.0,0.30357149575518,0.22855584310596,10.240761779033,0.0,0.0,0.0,0.0,0.0,0.0,0.0,0.0,0.0
1317398097679285049,0,1317398097679285049,imu_link,-0.0004585535996718093,0.0026422292972422775,0.07055147216933048,0.9975045353920338,0.0,0.0,0.0,0.0,0.0,0.0,0.0,0.0,0.0,-0.025619578859723,0.034058907345954,-0.011540253069069,0.0,0.0,0.0,0.0,0.0,0.0,0.0,0.0,0.0,0.13926271857494,-0.26481144540399,10.047550187664,0.0,0.0,0.0,0.0,0.0,0.0,0.0,0.0,0.0
1317398097789282083,0,1317398097789282083,imu_link,-0.0016032556482783447,0.005587256520404403,0.07057310644634177,0.9974896735216936,0.0,0.0,0.0,0.0,0.0,0.0,0.0,0.0,0.0,-0.018810667469015,0.053612970273067,-0.0033095162482824,0.0,0.0,0.0,0.0,0.0,0.0,0.0,0.0,0.0,0.1158412738311,-0.14019669830516,9.347813587005,0.0,0.0,0.0,0.0,0.0,0.0,0.0,0.0,0.0
1317398097889281988,0,1317398097889281988,imu_link,-0.003320032117237424,0.008044075367605798,0.07061183389139773,0.997465908767169,0.0,0.0,0.0,0.0,0.0,0.0,0.0,0.0,0.0,-0.028945179255279,0.052281911483896,-0.002068773463105,0.0,0.0,0.0,0.0,0.0,0.0,0.0,0.0,0.0,-0.12622847020114,0.2942566865798,9.3493923916014,0.0,0.0,0.0,0.0,0.0,0.0,0.0,0.0,0.0
1317398097989392042,0,1317398097989392042,imu_link,-0.004936137216156077,0.008643230510104079,0.07066789807074556,0.9974502380058842,0.0,0.0,0.0,0.0,0.0,0.0,0.0,0.0,0.0,-0.0275204131209,0.016659173206867,0.00016657979897542,0.0,0.0,0.0,0.0,0.0,0.0,0.0,0.0,0.0,-0.36564201280818,-0.18619577230438,9.8047302095358,0.0,0.0,0.0,0.0,0.0,0.0,0.0,0.0,0.0
1317398098099277973,0,1317398098099277973,imu_link,-0.0034642798132426826,0.0059439387175909755,0.07119142854971909,0.9974389449279325,0.0,0.0,0.0,0.0,0.0,0.0,0.0,0.0,0.0,0.020512472138126,-0.048653475836948,0.0067860802849803,0.0,0.0,0.0,0.0,0.0,0.0,0.0,0.0,0.0,-0.39414028181851,-0.19359869460813,9.01530691429,0.0,0.0,0.0,0.0,0.0,0.0,0.0,0.0,0.0
1317398098199254989,0,1317398098199254989,imu_link,-0.0017897138337415385,0.00037750312771402355,0.07178313982307517,0.9974185857767655,0.0,0.0,0.0,0.0,0.0,0.0,0.0,0.0,0.0,0.025490564243591,-0.10014427015564,0.010017394405855,0.0,0.0,0.0,0.0,0.0,0.0,0.0,0.0,0.0,-0.14373896956631,0.052077025580648,9.4904190649739,0.0,0.0,0.0,0.0,0.0,0.0,0.0,0.0,0.0
1317398098309254884,0,1317398098309254884,imu_link,-0.00036939101228744184,-0.002892658603636388,0.07210059098194067,0.9973931024709053,0.0,0.0,0.0,0.0,0.0,0.0,0.0,0.0,0.0,0.019968475989546,-0.054596135401842,0.0067027273868506,0.0,0.0,0.0,0.0,0.0,0.0,0.0,0.0,0.0,-0.10256252750013,0.064875002191655,11.212452653305,0.0,0.0,0.0,0.0,0.0,0.0,0.0,0.0,0.0
1317398098409276962,0,1317398098409276962,imu_link,1.3312905677039806e-05,-1.7578866353940925e-05,0.07268351444092261,0.9973550552547805,0.0,0.0,0.0,0.0,0.0,0.0,0.0,0.0,0.0,0.013346753771777,0.046778509112038,0.010603143986455,0.0,0.0,0.0,0.0,0.0,0.0,0.0,0.0,0.0,-0.13072796940545,0.0020099114156534,11.042192603819,0.0,0.0,0.0,0.0,0.0,0.0,0.0,0.0,0.0
1317398098509313106,0,1317398098509313106,imu_link,0.001013795557424056,0.004217568599515477,0.07323888493063717,0.9973049935038895,0.0,0.0,0.0,0.0,0.0,0.0,0.0,0.0,0.0,0.023972608516119,0.07498183903788,0.0096244466363132,0.0,0.0,0.0,0.0,0.0,0.0,0.0,0.0,0.0,-0.37511962589101,0.10927460746849,9.3366949257134,0.0,0.0,0.0,0.0,0.0,0.0,0.0,0.0,0.0
1317398098619259119,0,1317398098619259119,imu_link,0.001785917448790454,0.005757376595679412,0.07352355257198548,0.9972752630697285,0.0,0.0,0.0,0.0,0.0,0.0,0.0,0.0,0.0,0.012288743518303,0.029489507827085,0.004073774136985,0.0,0.0,0.0,0.0,0.0,0.0,0.0,0.0,0.0,-0.46294018913278,0.24533546322091,9.095384492459,0.0,0.0,0.0,0.0,0.0,0.0,0.0,0.0,0.0
1317398098719317913,0,1317398098719317913,imu_link,0.0014190960211185556,0.005446633767004832,0.07356181340848102,0.9972747765561639,0.0,0.0,0.0,0.0,0.0,0.0,0.0,0.0,0.0,-0.0063805635203294,-0.00038920054314617,-0.00032323978028869,0.0,0.0,0.0,0.0,0.0,0.0,0.0,0.0,0.0,-0.34519823699777,0.24625382518355,9.5291616635922,0.0,0.0,0.0,0.0,0.0,0.0,0.0,0.0,0.0
1317398098829262018,0,1317398098829262018,imu_link,-0.00010185312347497618,0.0048710934405624216,0.07320052146103947,0.9973053422761088,0.0,0.0,0.0,0.0,0.0,0.0,0.0,0.0,0.0,-0.026056488189375,-0.005546434591942,-0.0080935684257592,0.0,0.0,0.0,0.0,0.0,0.0,0.0,0.0,0.0,-0.26717335281072,0.094938484278318,9.6946062462557,0.0,0.0,0.0,0.0,0.0,0.0,0.0,0.0,0.0
1317398098929244041,0,1317398098929244041,imu_link,-0.0010371179997126863,0.004576470575278283,0.07230946677260777,0.9973712053786139,0.0,0.0,0.0,0.0,0.0,0.0,0.0,0.0,0.0,-0.018805112810302,-0.0032992575181537,-0.017146244795651,0.0,0.0,0.0,0.0,0.0,0.0,0.0,0.0,0.0,-0.2849222892124,-0.16445386277598,9.9146007480844,0.0,0.0,0.0,0.0,0.0,0.0,0.0,0.0,0.0
1317398099039243936,0,1317398099039243936,imu_link,-0.0014461172524709812,0.004797606555093961,0.07128014691646442,0.9974437489762528,0.0,0.0,0.0,0.0,0.0,0.0,0.0,0.0,0.0,-0.0062915035801235,0.0063843976604456,-0.019464887760474,0.0,0.0,0.0,0.0,0.0,0.0,0.0,0.0,0.0,-0.3915076844319,-0.16929883748315,9.9112834224258,0.0,0.0,0.0,0.0,0.0,0.0,0.0,0.0,0.0
1317398099139250993,0,1317398099139250993,imu_link,-0.001774181094369592,0.004380129864142521,0.0702799626307614,0.9975161119482915,0.0,0.0,0.0,0.0,0.0,0.0,0.0,0.0,0.0,-0.0095951818815789,-0.0047078101625853,-0.019922346829742,0.0,0.0,0.0,0.0,0.0,0.0,0.0,0.0,0.0,-0.27260894707169,-0.11259952679934,9.6053279981967,0.0,0.0,0.0,0.0,0.0,0.0,0.0,0.0,0.0
1317398099239223003,0,1317398099239223003,imu_link,-0.002664638997839289,0.004151774779859146,0.06931844044954397,0.9975823857099881,0.0,0.0,0.0,0.0,0.0,0.0,0.0,0.0,0.0,-0.015393589573221,-0.0021232659263984,-0.020813891709941,0.0,0.0,0.0,0.0,0.0,0.0,0.0,0.0,0.0,-0.32332709139491,0.055648742849706,9.7273077306022,0.0,0.0,0.0,0.0,0.0,0.0,0.0,0.0,0.0
1317398099349289894,0,1317398099349289894,imu_link,-0.0037815334316658312,0.004422218163449927,0.06825311092599325,0.9976510696833559,0.0,0.0,0.0,0.0,0.0,0.0,0.0,0.0,0.0,-0.019926656670831,0.0057830083734273,-0.019632917272216,0.0,0.0,0.0,0.0,0.0,0.0,0.0,0.0,0.0,-0.51231842229653,-0.21456336308168,10.074645002858,0.0,0.0,0.0,0.0,0.0,0.0,0.0,0.0,0.0
1317398099449373960,0,1317398099449373960,imu_link,-0.0036237619682683514,0.005199029624097711,0.06726222592160815,0.9977152055592997,0.0,0.0,0.0,0.0,0.0,0.0,0.0,0.0,0.0,0.00062550247929135,0.013551297904777,-0.019746102905799,0.0,0.0,0.0,0.0,0.0,0.0,0.0,0.0,0.0,-0.65912085916424,-0.23286501281634,10.02896186051,0.0,0.0,0.0,0.0,0.0,0.0,0.0,0.0,0.0
1317398099559281110,0,1317398099559281110,imu_link,-0.0037909770577473465,0.005282555346766212,0.06622022476968217,0.9977838467991997,0.0,0.0,0.0,0.0,0.0,0.0,0.0,0.0,0.0,0.00095188216252174,0.0043392378109619,-0.019820816373249,0.0,0.0,0.0,0.0,0.0,0.0,0.0,0.0,0.0,-0.45465041763161,-0.038270515222434,9.5376763241891,0.0,0.0,0.0,0.0,0.0,0.0,0.0,0.0,0.0
1317398099659173965,0,1317398099659173965,imu_link,-0.0038971453145944844,0.004696863252686994,0.06535153720525902,0.9978436392135254,0.0,0.0,0.0,0.0,0.0,0.0,0.0,0.0,0.0,-0.0045287936237304,-0.0076307489952339,-0.017571673078384,0.0,0.0,0.0,0.0,0.0,0.0,0.0,0.0,0.0,-0.40534480388148,-0.27421951753423,9.4775378721272,0.0,0.0,0.0,0.0,0.0,0.0,0.0,0.0,0.0
1317398099769251108,0,1317398099769251108,imu_link,-0.0035484053982269845,0.004312563954450588,0.06482095685355505,0.9978812826002189,0.0,0.0,0.0,0.0,0.0,0.0,0.0,0.0,0.0,0.0055472150633046,-0.0046292160601052,-0.010706997301461,0.0,0.0,0.0,0.0,0.0,0.0,0.0,0.0,0.0,-0.37570153296942,-0.19267273321627,10.188983353042,0.0,0.0,0.0,0.0,0.0,0.0,0.0,0.0,0.0
1317398099869374036,0,1317398099869374036,imu_link,-0.002641417900167107,0.005038772655476433,0.06421343123444433,0.9979199712054583,0.0,0.0,0.0,0.0,0.0,0.0,0.0,0.0,0.0,0.015893004046836,0.007951672458048,-0.013012394616474,0.0,0.0,0.0,0.0,0.0,0.0,0.0,0.0,0.0,-0.35799453120693,-0.036595639830089,9.9228654705154,0.0,0.0,0.0,0.0,0.0,0.0,0.0,0.0,0.0
1317398099969331979,0,1317398099969331979,imu_link,-0.002590637586934945,0.005484959861700836,0.0635382757787034,0.997960966833512,0.0,0.0,0.0,0.0,0.0,0.0,0.0,0.0,0.0,0.0044286671106999,0.0036635766842924,-0.013604356327626,0.0,0.0,0.0,0.0,0.0,0.0,0.0,0.0,0.0,-0.47796707650577,-0.05488326531887,9.6887678497237,0.0,0.0,0.0,0.0,0.0,0.0,0.0,0.0,0.0
1317398100079255104,0,1317398100079255104,imu_link,-0.003169090245501041,0.005818409622072774,0.06281420358884646,0.9980032458885013,0.0,0.0,0.0,0.0,0.0,0.0,0.0,0.0,0.0,-0.0087930029218079,0.0068322738710729,-0.011911811403345,0.0,0.0,0.0,0.0,0.0,0.0,0.0,0.0,0.0,-0.884570675743,0.047797490796352,9.7584322976422,0.0,0.0,0.0,0.0,0.0,0.0,0.0,0.0,0.0
1317398100179215908,0,1317398100179215908,imu_link,-0.004094189259489586,0.006243110123671559,0.062149336221213665,0.9980389377161364,0.0,0.0,0.0,0.0,0.0,0.0,0.0,0.0,0.0,-0.016531530971065,0.0092655816497152,-0.012517378479244,0.0,0.0,0.0,0.0,0.0,0.0,0.0,0.0,0.0,-1.3868623715204,-0.11273433833901,9.6031628161546,0.0,0.0,0.0,0.0,0.0,0.0,0.0,0.0,0.0
1317398100289216995,0,1317398100289216995,imu_link,-0.004733031900827862,0.006612685345908839,0.06167370560111482,0.9980632368938197,0.0,0.0,0.0,0.0,0.0,0.0,0.0,0.0,0.0,-0.010679591382271,0.0062523440087926,-0.0086146554070569,0.0,0.0,0.0,0.0,0.0,0.0,0.0,0.0,0.0,-1.6403901361323,-0.14810077476227,9.9457830627991,0.0,0.0,0.0,0.0,0.0,0.0,0.0,0.0,0.0
1317398100389209985,0,1317398100389209985,imu_link,-0.0047083789131864544,0.006985202281631335,0.06125413365303203,0.9980866541676182,0.0,0.0,0.0,0.0,0.0,0.0,0.0,0.0,0.0,-0.0038067174486587,0.0032599390481591,-0.0070605395710608,0.0,0.0,0.0,0.0,0.0,0.0,0.0,0.0,0.0,-1.3477459027611,-0.14318896250494,9.6907195366716,0.0,0.0,0.0,0.0,0.0,0.0,0.0,0.0,0.0
1317398100499327898,0,1317398100499327898,imu_link,-0.0045308118255683195,0.005754442238692631,0.06109655946230827,0.9981049887464701,0.0,0.0,0.0,0.0,0.0,0.0,0.0,0.0,0.0,0.0016037209603032,-0.019271660635109,-0.0023962224012539,0.0,0.0,0.0,0.0,0.0,0.0,0.0,0.0,0.0,-0.59160290870101,-0.11882530450204,9.7114843174012,0.0,0.0,0.0,0.0,0.0,0.0,0.0,0.0,0.0
1317398100599149942,0,1317398100599149942,imu_link,-0.004304751103542212,0.004287627200158931,0.061070338242366726,0.9981149729153913,0.0,0.0,0.0,0.0,0.0,0.0,0.0,0.0,0.0,-0.00033830620185679,-0.026604717217172,-1.6193506621288e-05,0.0,0.0,0.0,0.0,0.0,0.0,0.0,0.0,0.0,-0.28946410450514,0.10663191117987,9.7871293088795,0.0,0.0,0.0,0.0,0.0,0.0,0.0,0.0,0.0
1317398100699223995,0,1317398100699223995,imu_link,-0.005202588055299518,0.003418010766920627,0.06100566240435149,0.9981180087717736,0.0,0.0,0.0,0.0,0.0,0.0,0.0,0.0,0.0,-0.014637577539352,-0.01754677476489,-0.0010310301358846,0.0,0.0,0.0,0.0,0.0,0.0,0.0,0.0,0.0,-0.27904319650247,0.10741565818075,9.881713831749,0.0,0.0,0.0,0.0,0.0,0.0,0.0,0.0,0.0
1317398100809225082,0,1317398100809225082,imu_link,-0.005013250248609101,0.0029812865635256503,0.06089325358645623,0.9981272418484661,0.0,0.0,0.0,0.0,0.0,0.0,0.0,0.0,0.0,0.0032257565484885,-0.0085102661553794,-0.0011261520234482,0.0,0.0,0.0,0.0,0.0,0.0,0.0,0.0,0.0,-0.30257897999026,-0.13863253651807,10.09605296952,0.0,0.0,0.0,0.0,0.0,0.0,0.0,0.0,0.0
1317398100909200906,0,1317398100909200906,imu_link,-0.004451096702835701,0.003088392261073996,0.06085042273881133,0.9981321934613129,0.0,0.0,0.0,0.0,0.0,0.0,0.0,0.0,0.0,0.011959434031423,-0.00034823425126039,-0.0013950033037728,0.0,0.0,0.0,0.0,0.0,0.0,0.0,0.0,0.0,-0.24385773724891,-0.098060365609797,9.9236375342829,0.0,0.0,0.0,0.0,0.0,0.0,0.0,0.0,0.0
1317398101019558906,0,1317398101019558906,imu_link,-0.004027573399704619,0.0036127596796336828,0.06068510022512692,0.998142297085277,0.0,0.0,0.0,0.0,0.0,0.0,0.0,0.0,0.0,0.0034960306004736,0.00603286715418,-0.00253353644571,0.0,0.0,0.0,0.0,0.0,0.0,0.0,0.0,0.0,-0.37602902160935,0.14597124766089,9.5722466515354,0.0,0.0,0.0,0.0,0.0,0.0,0.0,0.0,0.0
1317398101119256019,0,1317398101119256019,imu_link,-0.0057966680575786324,0.0031248709739586543,0.06053473800255228,0.9981443679727842,0.0,0.0,0.0,0.0,0.0,0.0,0.0,0.0,0.0,-0.030053654656819,-0.0061665943423342,-0.0026125922687833,0.0,0.0,0.0,0.0,0.0,0.0,0.0,0.0,0.0,-0.34784640437128,0.24438904372287,9.9492526510997,0.0,0.0,0.0,0.0,0.0,0.0,0.0,0.0,0.0
1317398101229166030,0,1317398101229166030,imu_link,-0.0072264952409729745,0.003151036335823249,0.060585314025209835,0.9981318893117328,0.0,0.0,0.0,0.0,0.0,0.0,0.0,0.0,0.0,-0.024919296941953,0.0035638505968885,0.00097857881135818,0.0,0.0,0.0,0.0,0.0,0.0,0.0,0.0,0.0,-0.34348109244324,-0.2754787041945,9.9772174973652,0.0,0.0,0.0,0.0,0.0,0.0,0.0,0.0,0.0
1317398101329197883,0,1317398101329197883,imu_link,-0.006371205911966429,0.0039290441232374745,0.06062263981181674,0.9981326895206627,0.0,0.0,0.0,0.0,0.0,0.0,0.0,0.0,0.0,0.010122999870295,0.014195784756364,-0.00049496388206641,0.0,0.0,0.0,0.0,0.0,0.0,0.0,0.0,0.0,-0.31490880596585,-0.28759526808484,9.5776934171068,0.0,0.0,0.0,0.0,0.0,0.0,0.0,0.0,0.0
1317398101429162025,0,1317398101429162025,imu_link,-0.005998065277452764,0.004148830262367658,0.06022792084050678,0.9981580075176529,0.0,0.0,0.0,0.0,0.0,0.0,0.0,0.0,0.0,0.0037080260938656,0.0062532065651905,-0.0083229144215645,0.0,0.0,0.0,0.0,0.0,0.0,0.0,0.0,0.0,-0.3191902306794,0.15747357443136,9.5507359606956,0.0,0.0,0.0,0.0,0.0,0.0,0.0,0.0,0.0
1317398101539228916,0,1317398101539228916,imu_link,-0.007562303361242604,0.004223853120995142,0.05851055116819915,0.9982492103852013,0.0,0.0,0.0,0.0,0.0,0.0,0.0,0.0,0.0,-0.027081903258906,0.0053203445709308,-0.031178468671694,0.0,0.0,0.0,0.0,0.0,0.0,0.0,0.0,0.0,-0.24348437746308,0.32654633473332,9.8966355009342,0.0,0.0,0.0,0.0,0.0,0.0,0.0,0.0,0.0
1317398101639157056,0,1317398101639157056,imu_link,-0.00968385185697906,0.004203568712775563,0.056041870533346014,0.9983726066806984,0.0,0.0,0.0,0.0,0.0,0.0,0.0,0.0,0.0,-0.033853405919711,-0.00081201919872811,-0.047539954708975,0.0,0.0,0.0,0.0,0.0,0.0,0.0,0.0,0.0,-0.28801035142705,-0.38096039986088,9.6576081059198,0.0,0.0,0.0,0.0,0.0,0.0,0.0,0.0,0.0
1317398101749133110,0,1317398101749133110,imu_link,-0.008068571802524722,0.0026139280638555204,0.05296052158570184,0.9985605883883637,0.0,0.0,0.0,0.0,0.0,0.0,0.0,0.0,0.0,0.029648850083427,-0.030280007346322,-0.055787618869471,0.0,0.0,0.0,0.0,0.0,0.0,0.0,0.0,0.0,0.046702100950851,-0.87876962988074,9.4371142987238,0.0,0.0,0.0,0.0,0.0,0.0,0.0,0.0,0.0
1317398101849288940,0,1317398101849288940,imu_link,-0.006702343464302031,0.001093446859549987,0.04989875245797288,0.9987311938000084,0.0,0.0,0.0,0.0,0.0,0.0,0.0,0.0,0.0,0.024262345785439,-0.028502005306925,-0.06162675794518,0.0,0.0,0.0,0.0,0.0,0.0,0.0,0.0,0.0,0.35021646708258,-0.10441509430396,9.8902933650714,0.0,0.0,0.0,0.0,0.0,0.0,0.0,0.0,0.0
1317398101959369897,0,1317398101959369897,imu_link,-0.007239598196061391,0.00018450188913791038,0.04602442936716219,0.9989140634100812,0.0,0.0,0.0,0.0,0.0,0.0,0.0,0.0,0.0,-0.0096573105665603,-0.014443545237101,-0.068075778500913,0.0,0.0,0.0,0.0,0.0,0.0,0.0,0.0,0.0,0.44281269211348,-0.03695104757328,10.039608928775,0.0,0.0,0.0,0.0,0.0,0.0,0.0,0.0,0.0
1317398102059179067,0,1317398102059179067,imu_link,-0.008987602769155188,0.0003002840575326707,0.04300431233416431,0.999034414795914,0.0,0.0,0.0,0.0,0.0,0.0,0.0,0.0,0.0,-0.028674647224776,0.0031556530258883,-0.061349212496447,0.0,0.0,0.0,0.0,0.0,0.0,0.0,0.0,0.0,0.41146067102602,-0.23703366220174,10.008596173168,0.0,0.0,0.0,0.0,0.0,0.0,0.0,0.0,0.0
1317398102159178972,0,1317398102159178972,imu_link,-0.009704750439851337,0.000705678320276315,0.04038537052520251,0.9991367982836737,0.0,0.0,0.0,0.0,0.0,0.0,0.0,0.0,0.0,-0.014934400158407,0.0071309265804381,-0.054128252549404,0.0,0.0,0.0,0.0,0.0,0.0,0.0,0.0,0.0,0.54999527749832,-0.81376026335358,9.8311903193049,0.0,0.0,0.0,0.0,0.0,0.0,0.0,0.0,0.0
1317398102269167900,0,1317398102269167900,imu_link,-0.010598331333918541,0.00032515584941299235,0.03803404910134969,0.999220186323098,0.0,0.0,0.0,0.0,0.0,0.0,0.0,0.0,0.0,-0.019798339375496,-0.012700082623265,-0.044548497937227,0.0,0.0,0.0,0.0,0.0,0.0,0.0,0.0,0.0,0.50022694588909,-0.42184101892203,9.5798775464859,0.0,0.0,0.0,0.0,0.0,0.0,0.0,0.0,0.0
1317398102369322061,0,1317398102369322061,imu_link,-0.011891559933760606,0.0005008056228027268,0.03612277833062863,0.999276480700785,0.0,0.0,0.0,0.0,0.0,0.0,0.0,0.0,0.0,-0.020194425246616,0.0047215374263007,-0.039716948165851,0.0,0.0,0.0,0.0,0.0,0.0,0.0,0.0,0.0,0.71650280588919,-0.19223925225053,10.014636213891,0.0,0.0,0.0,0.0,0.0,0.0,0.0,0.0,0.0
1317398102479320049,0,1317398102479320049,imu_link,-0.011701016049173032,0.0018441211935335774,0.03462145911513023,0.9993302957527005,0.0,0.0,0.0,0.0,0.0,0.0,0.0,0.0,0.0,-0.0015095712608162,0.024263060926979,-0.026791042081417,0.0,0.0,0.0,0.0,0.0,0.0,0.0,0.0,0.0,0.7191334264774,-0.57533132778923,10.010830178193,0.0,0.0,0.0,0.0,0.0,0.0,0.0,0.0,0.0
1317398102579169034,0,1317398102579169034,imu_link,-0.010911481841884606,0.0035630652408543263,0.03374041220405532,0.9993647125621375,0.0,0.0,0.0,0.0,0.0,0.0,0.0,0.0,0.0,0.01217339122157,0.030403656743733,-0.02003600505898,0.0,0.0,0.0,0.0,0.0,0.0,0.0,0.0,0.0,0.62144102378236,-0.18433834530309,9.9627266863378,0.0,0.0,0.0,0.0,0.0,0.0,0.0,0.0,0.0
1317398102689168930,0,1317398102689168930,imu_link,-0.011501762830507072,0.005614551439832785,0.032758359722289646,0.9993813467001599,0.0,0.0,0.0,0.0,0.0,0.0,0.0,0.0,0.0,-0.019626197753197,0.038098911224771,-0.016337530921281,0.0,0.0,0.0,0.0,0.0,0.0,0.0,0.0,0.0,0.72038449263362,0.17818102064065,9.194649969574,0.0,0.0,0.0,0.0,0.0,0.0,0.0,0.0,0.0
1317398102789171934,0,1317398102789171934,imu_link,-0.011654006428517482,0.005268084143103265,0.03204328853907224,0.9994046523221849,0.0,0.0,0.0,0.0,0.0,0.0,0.0,0.0,0.0,-0.0025657066554165,-0.00051671242395618,-0.012562448351142,0.0,0.0,0.0,0.0,0.0,0.0,0.0,0.0,0.0,0.5737620518073,-0.30547228693661,9.2121805617365,0.0,0.0,0.0,0.0,0.0,0.0,0.0,0.0,0.0
1317398102889163970,0,1317398102889163970,imu_link,-0.011014959703732733,0.0038780196438416977,0.03169719035014241,0.9994292970241938,0.0,0.0,0.0,0.0,0.0,0.0,0.0,0.0,0.0,0.012721939109489,-0.025418907815912,-0.0060123600064322,0.0,0.0,0.0,0.0,0.0,0.0,0.0,0.0,0.0,0.56088454758904,-0.47639282724872,9.7661970892539,0.0,0.0,0.0,0.0,0.0,0.0,0.0,0.0,0.0
1317398102999439954,0,1317398102999439954,imu_link,-0.00798544115913775,0.0020304695293385184,0.03157040865902981,0.9994675678680556,0.0,0.0,0.0,0.0,0.0,0.0,0.0,0.0,0.0,0.053605069044541,-0.032818157540786,-0.0022191171772134,0.0,0.0,0.0,0.0,0.0,0.0,0.0,0.0,0.0,0.35975343839385,-0.41600615565364,10.367519708914,0.0,0.0,0.0,0.0,0.0,0.0,0.0,0.0,0.0
1317398103099160909,0,1317398103099160909,imu_link,-0.004237420799031072,0.0004918549993363345,0.031242927232420867,0.9995027172757366,0.0,0.0,0.0,0.0,0.0,0.0,0.0,0.0,0.0,0.062156972882102,-0.031681417778114,-0.0057033636562412,0.0,0.0,0.0,0.0,0.0,0.0,0.0,0.0,0.0,0.46480982407443,0.081098766854545,9.7544853484781,0.0,0.0,0.0,0.0,0.0,0.0,0.0,0.0,0.0
1317398103209153890,0,1317398103209153890,imu_link,-0.0034767269863359494,-0.0006130903465767436,0.030860804079191458,0.9995174572068641,0.0,0.0,0.0,0.0,0.0,0.0,0.0,0.0,0.0,0.016783343177387,-0.017368606496237,-0.0070220838454084,0.0,0.0,0.0,0.0,0.0,0.0,0.0,0.0,0.0,0.28703333262489,0.41192742892792,10.065988818972,0.0,0.0,0.0,0.0,0.0,0.0,0.0,0.0,0.0
1317398103309153079,0,1317398103309153079,imu_link,-0.004538184551463119,0.00039487709850400993,0.030587487863778174,0.999521712890339,0.0,0.0,0.0,0.0,0.0,0.0,0.0,0.0,0.0,-0.016787711473823,0.017154463261866,-0.0047938157588095,0.0,0.0,0.0,0.0,0.0,0.0,0.0,0.0,0.0,0.11442808395371,0.084228139170184,10.232024920722,0.0,0.0,0.0,0.0,0.0,0.0,0.0,0.0,0.0
1317398103409131050,0,1317398103409131050,imu_link,-0.005140114583658028,0.0032389635698515996,0.030659397857095313,0.9995114254775181,0.0,0.0,0.0,0.0,0.0,0.0,0.0,0.0,0.0,-0.014762928419921,0.055579967264517,0.0011476300873805,0.0,0.0,0.0,0.0,0.0,0.0,0.0,0.0,0.0,-0.17402999349608,-0.27980105996294,9.81173546148,0.0,0.0,0.0,0.0,0.0,0.0,0.0,0.0,0.0
1317398103519362926,0,1317398103519362926,imu_link,-0.0037230411357786985,0.00416867366109791,0.03056281001978564,0.9995172213465374,0.0,0.0,0.0,0.0,0.0,0.0,0.0,0.0,0.0,0.01596750656585,0.019045664713872,-0.00098942921878745,0.0,0.0,0.0,0.0,0.0,0.0,0.0,0.0,0.0,-0.18215355592045,0.042869952523643,9.640946754707,0.0,0.0,0.0,0.0,0.0,0.0,0.0,0.0,0.0
1317398103619149923,0,1317398103619149923,imu_link,-0.0035878165452991138,0.004480080898847773,0.0300899538267959,0.9995307154491443,0.0,0.0,0.0,0.0,0.0,0.0,0.0,0.0,0.0,0.0018157238125429,0.0046614351520854,-0.0086896322528269,0.0,0.0,0.0,0.0,0.0,0.0,0.0,0.0,0.0,-0.14778607968735,0.047061055865048,9.6736424662049,0.0,0.0,0.0,0.0,0.0,0.0,0.0,0.0,0.0
1317398103729150056,0,1317398103729150056,imu_link,-0.004335203591424784,0.00404530913623135,0.029164593293177977,0.9995570358823236,0.0,0.0,0.0,0.0,0.0,0.0,0.0,0.0,0.0,-0.010450599331478,-0.0079315989447391,-0.014782661563012,0.0,0.0,0.0,0.0,0.0,0.0,0.0,0.0,0.0,-0.089946326680792,-0.098395213749783,9.6752289125993,0.0,0.0,0.0,0.0,0.0,0.0,0.0,0.0,0.0
1317398103829152107,0,1317398103829152107,imu_link,-0.0045563079742767755,0.0034414755498507104,0.02807242345198195,0.9995895834517364,0.0,0.0,0.0,0.0,0.0,0.0,0.0,0.0,0.0,-0.0086987133642436,-0.0090887574368978,-0.020436677821682,0.0,0.0,0.0,0.0,0.0,0.0,0.0,0.0,0.0,-0.032424507185584,-0.20447795957361,10.037335988889,0.0,0.0,0.0,0.0,0.0,0.0,0.0,0.0,0.0
1317398103939141035,0,1317398103939141035,imu_link,-0.004206837439502287,0.003600084940638147,0.02691824966257193,0.9996223035438341,0.0,0.0,0.0,0.0,0.0,0.0,0.0,0.0,0.0,0.0091625162514588,-0.00057124559267224,-0.021696873222999,0.0,0.0,0.0,0.0,0.0,0.0,0.0,0.0,0.0,0.045009411459487,-0.37979576905755,9.880672254506,0.0,0.0,0.0,0.0,0.0,0.0,0.0,0.0,0.0
1317398104039166927,0,1317398104039166927,imu_link,-0.0038401466723543875,0.003569758827082203,0.026032106689847435,0.9996473575800316,0.0,0.0,0.0,0.0,0.0,0.0,0.0,0.0,0.0,0.0030141804491908,-0.0011882782014534,-0.017253308568627,0.0,0.0,0.0,0.0,0.0,0.0,0.0,0.0,0.0,0.21887080823224,-0.053362987815508,9.7224317659864,0.0,0.0,0.0,0.0,0.0,0.0,0.0,0.0,0.0
1317398104139143943,0,1317398104139143943,imu_link,-0.004008263056119613,0.0036813921296012016,0.025017983049515385,0.9996721871210559,0.0,0.0,0.0,0.0,0.0,0.0,0.0,0.0,0.0,-0.0034098532185977,0.0039993191708692,-0.01961600818729,0.0,0.0,0.0,0.0,0.0,0.0,0.0,0.0,0.0,0.44821969861032,0.023001689275882,9.7889087742061,0.0,0.0,0.0,0.0,0.0,0.0,0.0,0.0,0.0
1317398104249313116,0,1317398104249313116,imu_link,-0.005259329530092302,0.0033536196704297364,0.02412736599687357,0.9996894332231652,0.0,0.0,0.0,0.0,0.0,0.0,0.0,0.0,0.0,-0.016559281447861,-0.0080993953571694,-0.015409559341149,0.0,0.0,0.0,0.0,0.0,0.0,0.0,0.0,0.0,0.33036864009064,-0.19344201753972,9.8029333899943,0.0,0.0,0.0,0.0,0.0,0.0,0.0,0.0,0.0
1317398104349144935,0,1317398104349144935,imu_link,-0.005052779112970509,0.0026974035204678786,0.023526150493911213,0.9997068138611545,0.0,0.0,0.0,0.0,0.0,0.0,0.0,0.0,0.0,-0.0033057095987587,-0.011664688802277,-0.011509178487312,0.0,0.0,0.0,0.0,0.0,0.0,0.0,0.0,0.0,0.49444801591492,-0.12539101449646,9.7658172116325,0.0,0.0,0.0,0.0,0.0,0.0,0.0,0.0,0.0
1317398104459327936,0,1317398104459327936,imu_link,-0.005877871099270174,0.002544691034489333,0.02314271334226652,0.9997116534271455,0.0,0.0,0.0,0.0,0.0,0.0,0.0,0.0,0.0,-0.0080107117012194,-0.0032691800074371,-0.0092736990175162,0.0,0.0,0.0,0.0,0.0,0.0,0.0,0.0,0.0,0.47510407815427,0.012500175226144,9.7088847587261,0.0,0.0,0.0,0.0,0.0,0.0,0.0,0.0,0.0
1317398104559192895,0,1317398104559192895,imu_link,-0.005888884075026375,0.002247325319498584,0.022462214154985453,0.9997278227140199,0.0,0.0,0.0,0.0,0.0,0.0,0.0,0.0,0.0,-0.0012499997878846,-0.0036058006415618,-0.012226536204626,0.0,0.0,0.0,0.0,0.0,0.0,0.0,0.0,0.0,0.45551333444278,-0.03151081228641,10.029923385542,0.0,0.0,0.0,0.0,0.0,0.0,0.0,0.0,0.0
1317398104669109106,0,1317398104669109106,imu_link,-0.005749219552203739,0.003125360679223875,0.021904403748369126,0.9997386536948515,0.0,0.0,0.0,0.0,0.0,0.0,0.0,0.0,0.0,0.0066614585387115,0.017325011564831,-0.010154225214831,0.0,0.0,0.0,0.0,0.0,0.0,0.0,0.0,0.0,0.60736052846275,-0.15071808249693,10.068492426882,0.0,0.0,0.0,0.0,0.0,0.0,0.0,0.0,0.0
1317398104769134044,0,1317398104769134044,imu_link,-0.0068108766069483505,0.003956448986619604,0.021367453892112934,0.9997406615645028,0.0,0.0,0.0,0.0,0.0,0.0,0.0,0.0,0.0,-0.014942826372384,0.011725120445389,-0.011039840387127,0.0,0.0,0.0,0.0,0.0,0.0,0.0,0.0,0.0,0.50687907281353,0.060706153085142,9.5204156319049,0.0,0.0,0.0,0.0,0.0,0.0,0.0,0.0,0.0
1317398104869278907,0,1317398104869278907,imu_link,-0.008410909126574995,0.004791190091514156,0.020564498746339196,0.9997416678804997,0.0,0.0,0.0,0.0,0.0,0.0,0.0,0.0,0.0,-0.032467786974786,0.013574224127733,-0.015702823633199,0.0,0.0,0.0,0.0,0.0,0.0,0.0,0.0,0.0,0.54582711126924,-0.11141687049404,9.7494475933124,0.0,0.0,0.0,0.0,0.0,0.0,0.0,0.0,0.0
1317398104979387044,0,1317398104979387044,imu_link,-0.00803052500284156,0.005259231931140796,0.019475956424547584,0.9997642413434391,0.0,0.0,0.0,0.0,0.0,0.0,0.0,0.0,0.0,0.0041739583036138,0.0048011429309712,-0.019969086684081,0.0,0.0,0.0,0.0,0.0,0.0,0.0,0.0,0.0,0.50805178129583,-0.54521790112697,9.5930904254052,0.0,0.0,0.0,0.0,0.0,0.0,0.0,0.0,0.0
1317398105079202890,0,1317398105079202890,imu_link,-0.007378347132527466,0.005130244111973589,0.018602190734307807,0.9997865767696762,0.0,0.0,0.0,0.0,0.0,0.0,0.0,0.0,0.0,0.011295324957616,-0.0027040098922658,-0.018622470886609,0.0,0.0,0.0,0.0,0.0,0.0,0.0,0.0,0.0,0.49830584772947,-0.10961320049278,9.743382451412,0.0,0.0,0.0,0.0,0.0,0.0,0.0,0.0,0.0
1317398105189122915,0,1317398105189122915,imu_link,-0.007678412245672338,0.004533390133452001,0.017440045063823514,0.999808149190361,0.0,0.0,0.0,0.0,0.0,0.0,0.0,0.0,0.0,-0.0037429138874185,-0.012807338893564,-0.01978598108546,0.0,0.0,0.0,0.0,0.0,0.0,0.0,0.0,0.0,0.44268357040608,0.11806620657047,9.3492491155383,0.0,0.0,0.0,0.0,0.0,0.0,0.0,0.0,0.0
1317398105289130926,0,1317398105289130926,imu_link,-0.0072960217193302765,0.002804554448993909,0.0166395929574879,0.9998309989631363,0.0,0.0,0.0,0.0,0.0,0.0,0.0,0.0,0.0,0.0082588193800027,-0.027796613264369,-0.014822730283546,0.0,0.0,0.0,0.0,0.0,0.0,0.0,0.0,0.0,0.44521824049013,-0.83076815825819,10.182441297879,0.0,0.0,0.0,0.0,0.0,0.0,0.0,0.0,0.0
1317398105399110078,0,1317398105399110078,imu_link,-0.005964854830158497,0.0007626986353758878,0.01649974058285928,0.9998457867883154,0.0,0.0,0.0,0.0,0.0,0.0,0.0,0.0,0.0,0.021530038659208,-0.040533204573404,-0.0053604203868252,0.0,0.0,0.0,0.0,0.0,0.0,0.0,0.0,0.0,0.47367128808453,0.035578885094339,10.065715923201,0.0,0.0,0.0,0.0,0.0,0.0,0.0,0.0,0.0
1317398105499269008,0,1317398105499269008,imu_link,-0.005297876881716674,-0.0009575892017222501,0.01594111924840809,0.9998584381004019,0.0,0.0,0.0,0.0,0.0,0.0,0.0,0.0,0.0,0.013956651149952,-0.034910812776725,-0.0098689874817789,0.0,0.0,0.0,0.0,0.0,0.0,0.0,0.0,0.0,0.58910468904497,0.096089739405817,9.8829251776535,0.0,0.0,0.0,0.0,0.0,0.0,0.0,0.0,0.0
1317398105599109888,0,1317398105599109888,imu_link,-0.0046034185064648065,-0.0013175685928300475,0.01605004021763669,0.9998597245414328,0.0,0.0,0.0,0.0,0.0,0.0,0.0,0.0,0.0,0.016815629289523,-0.0067119748706066,0.00063082799870567,0.0,0.0,0.0,0.0,0.0,0.0,0.0,0.0,0.0,0.4725303395043,-0.28023158290799,10.312150516984,0.0,0.0,0.0,0.0,0.0,0.0,0.0,0.0,0.0
1317398105709105968,0,1317398105709105968,imu_link,-0.0024606833161733735,-0.0008085866045601005,0.01624649321267943,0.9998646621836431,0.0,0.0,0.0,0.0,0.0,0.0,0.0,0.0,0.0,0.031903988188539,0.0075693691128696,0.0022623466781299,0.0,0.0,0.0,0.0,0.0,0.0,0.0,0.0,0.0,0.53606729129449,0.27629579133125,9.8219137323096,0.0,0.0,0.0,0.0,0.0,0.0,0.0,0.0,0.0
1317398105809119939,0,1317398105809119939,imu_link,-0.0023098683367212686,0.0001262963976537975,0.01633027221959529,0.9998639761321142,0.0,0.0,0.0,0.0,0.0,0.0,0.0,0.0,0.0,0.0093229287375131,0.015148414091214,0.0011548453529906,0.0,0.0,0.0,0.0,0.0,0.0,0.0,0.0,0.0,0.52724191811936,-0.012641521461481,9.6290539147222,0.0,0.0,0.0,0.0,0.0,0.0,0.0,0.0,0.0
1317398105919178009,0,1317398105919178009,imu_link,-0.0025530931322137016,0.0008824734333655153,0.016706172888933602,0.9998567931176459,0.0,0.0,0.0,0.0,0.0,0.0,0.0,0.0,0.0,-0.0036786424091749,0.012828461811917,0.0068730691528582,0.0,0.0,0.0,0.0,0.0,0.0,0.0,0.0,0.0,0.39445893384527,0.031419703973988,9.7732966142321,0.0,0.0,0.0,0.0,0.0,0.0,0.0,0.0,0.0
1317398106019401073,0,1317398106019401073,imu_link,-0.0031844102229673203,0.0018774210557003812,0.017546733869688705,0.9998392105494853,0.0,0.0,0.0,0.0,0.0,0.0,0.0,0.0,0.0,-0.0094338300242682,0.017345627244747,0.015456546069649,0.0,0.0,0.0,0.0,0.0,0.0,0.0,0.0,0.0,0.31251787640914,-0.11194803402442,9.9905203513349,0.0,0.0,0.0,0.0,0.0,0.0,0.0,0.0,0.0
1317398106129113912,0,1317398106129113912,imu_link,-0.002807381575460527,0.0037704202021937106,0.01842437868461487,0.9998192060619132,0.0,0.0,0.0,0.0,0.0,0.0,0.0,0.0,0.0,0.0038225603338661,0.029049590847391,0.015389388963293,0.0,0.0,0.0,0.0,0.0,0.0,0.0,0.0,0.0,0.3170198376992,0.22515689688261,9.6593769762292,0.0,0.0,0.0,0.0,0.0,0.0,0.0,0.0,0.0
1317398106229084968,0,1317398106229084968,imu_link,-0.0026306518844622477,0.0054378099658739755,0.019268478103754736,0.9997960970342917,0.0,0.0,0.0,0.0,0.0,0.0,0.0,0.0,0.0,-0.00030887881536096,0.036184396591899,0.016000557628651,0.0,0.0,0.0,0.0,0.0,0.0,0.0,0.0,0.0,0.26023047685211,0.24859222948942,9.6447445219945,0.0,0.0,0.0,0.0,0.0,0.0,0.0,0.0,0.0
1317398106329097032,0,1317398106329097032,imu_link,-0.003445933207273613,0.005784825227169249,0.020123333638502196,0.9997748310418179,0.0,0.0,0.0,0.0,0.0,0.0,0.0,0.0,0.0,-0.0089668284593963,0.008206436294576,0.015557206699299,0.0,0.0,0.0,0.0,0.0,0.0,0.0,0.0,0.0,0.17076088835412,0.28108967172017,9.5479554347927,0.0,0.0,0.0,0.0,0.0,0.0,0.0,0.0,0.0
1317398106439047098,0,1317398106439047098,imu_link,-0.0029183543758201074,0.003796893975231725,0.020881354297226744,0.9997704915862397,0.0,0.0,0.0,0.0,0.0,0.0,0.0,0.0,0.0,0.0053892909403913,-0.033063183367706,0.01516464543722,0.0,0.0,0.0,0.0,0.0,0.0,0.0,0.0,0.0,0.11451092201709,-0.0080137109384349,9.3931161315222,0.0,0.0,0.0,0.0,0.0,0.0,0.0,0.0,0.0
1317398106539124965,0,1317398106539124965,imu_link,-0.002664229639015057,0.0007337406759966834,0.021934417227313253,0.9997555925554751,0.0,0.0,0.0,0.0,0.0,0.0,0.0,0.0,0.0,0.0054528124888631,-0.057737737083994,0.019689076336394,0.0,0.0,0.0,0.0,0.0,0.0,0.0,0.0,0.0,0.32376887778358,0.015345797283599,9.0113981553683,0.0,0.0,0.0,0.0,0.0,0.0,0.0,0.0,0.0
1317398106649281024,0,1317398106649281024,imu_link,-0.0032813996998027994,-0.0011591613267587558,0.022811461584236345,0.9997337275401982,0.0,0.0,0.0,0.0,0.0,0.0,0.0,0.0,0.0,-0.019062021231275,-0.021716151934107,0.017906916180241,0.0,0.0,0.0,0.0,0.0,0.0,0.0,0.0,0.0,0.32863188237264,0.40397720124555,10.542180510169,0.0,0.0,0.0,0.0,0.0,0.0,0.0,0.0,0.0
1317398106749234914,0,1317398106749234914,imu_link,-0.004184356006918453,-0.00030861136983392057,0.023664867742142312,0.9997111432601801,0.0,0.0,0.0,0.0,0.0,0.0,0.0,0.0,0.0,-0.0135276682806,0.020852654230868,0.016307633255281,0.0,0.0,0.0,0.0,0.0,0.0,0.0,0.0,0.0,0.30958430580907,0.26612059842302,10.45231125408,0.0,0.0,0.0,0.0,0.0,0.0,0.0,0.0,0.0
1317398106859083890,0,1317398106859083890,imu_link,-0.004026490547718348,0.0012588226394556902,0.024103529542764124,0.9997005664712872,0.0,0.0,0.0,0.0,0.0,0.0,0.0,0.0,0.0,-0.0028396152355297,0.028603324486408,0.0098174461001119,0.0,0.0,0.0,0.0,0.0,0.0,0.0,0.0,0.0,0.16426958214772,0.14531159635172,9.6371559753198,0.0,0.0,0.0,0.0,0.0,0.0,0.0,0.0,0.0
1317398106959142923,0,1317398106959142923,imu_link,-0.0036904865111124204,0.0021081189662961585,0.024392518018560103,0.999693423609683,0.0,0.0,0.0,0.0,0.0,0.0,0.0,0.0,0.0,0.0066993783319404,0.021012895133846,0.005448709444461,0.0,0.0,0.0,0.0,0.0,0.0,0.0,0.0,0.0,0.16961644378624,0.17091729688577,9.6089999205206,0.0,0.0,0.0,0.0,0.0,0.0,0.0,0.0,0.0
1317398107059170007,0,1317398107059170007,imu_link,-0.003626416985658885,0.0020749193999118824,0.024742656285741155,0.9996851228108058,0.0,0.0,0.0,0.0,0.0,0.0,0.0,0.0,0.0,-0.0015086929157386,0.0067604242565977,0.0073581877133533,0.0,0.0,0.0,0.0,0.0,0.0,0.0,0.0,0.0,0.027671329992211,0.14194730279827,9.832621672711,0.0,0.0,0.0,0.0,0.0,0.0,0.0,0.0,0.0
1317398107169044971,0,1317398107169044971,imu_link,-0.004221321419527123,0.002263772257104939,0.024980639196631467,0.9996764593837192,0.0,0.0,0.0,0.0,0.0,0.0,0.0,0.0,0.0,-0.0094805895883213,-0.0001051055522356,0.004421060474255,0.0,0.0,0.0,0.0,0.0,0.0,0.0,0.0,0.0,-0.021351205641159,-0.010769688946206,9.6209494973122,0.0,0.0,0.0,0.0,0.0,0.0,0.0,0.0,0.0
1317398107269088029,0,1317398107269088029,imu_link,-0.00296339029335931,0.00292191142542151,0.02531989186123572,0.9996707377070345,0.0,0.0,0.0,0.0,0.0,0.0,0.0,0.0,0.0,0.021620407179825,0.01178154676125,0.0054238160052639,0.0,0.0,0.0,0.0,0.0,0.0,0.0,0.0,0.0,-0.032199108731961,-0.24222047936948,9.9407016268774,0.0,0.0,0.0,0.0,0.0,0.0,0.0,0.0,0.0
1317398107379023075,0,1317398107379023075,imu_link,-0.0018211327756028977,0.003906691089492285,0.02586933311062884,0.9996560402681296,0.0,0.0,0.0,0.0,0.0,0.0,0.0,0.0,0.0,0.019026598373074,0.012531928184671,0.0091386199366646,0.0,0.0,0.0,0.0,0.0,0.0,0.0,0.0,0.0,-0.16069659753019,0.03089152496918,9.5300771158438,0.0,0.0,0.0,0.0,0.0,0.0,0.0,0.0,0.0
1317398107479310989,0,1317398107479310989,imu_link,-0.000436955831939355,0.003346681119752696,0.02623817399104536,0.9996500222681433,0.0,0.0,0.0,0.0,0.0,0.0,0.0,0.0,0.0,0.028444860135502,-0.0058408264536957,0.0060055106975678,0.0,0.0,0.0,0.0,0.0,0.0,0.0,0.0,0.0,-0.23403501418399,0.56422466658473,10.073957141106,0.0,0.0,0.0,0.0,0.0,0.0,0.0,0.0,0.0
1317398107589067935,0,1317398107589067935,imu_link,-0.00014854366667125968,0.002064774771686019,0.026633150071741787,0.9996431313009544,0.0,0.0,0.0,0.0,0.0,0.0,0.0,0.0,0.0,0.012890355244282,-0.029129729040737,0.009576113095413,0.0,0.0,0.0,0.0,0.0,0.0,0.0,0.0,0.0,-0.25930514118334,-0.10581433679244,9.2344460511349,0.0,0.0,0.0,0.0,0.0,0.0,0.0,0.0,0.0
1317398107689070940,0,1317398107689070940,imu_link,-0.0015063866248776674,0.0014162399702352523,0.027071435230464368,0.9996313632826083,0.0,0.0,0.0,0.0,0.0,0.0,0.0,0.0,0.0,-0.02312039357524,-0.011860979898999,0.0083530052351344,0.0,0.0,0.0,0.0,0.0,0.0,0.0,0.0,0.0,-0.25913185373397,0.32166493801537,10.09950229999,0.0,0.0,0.0,0.0,0.0,0.0,0.0,0.0,0.0
1317398107789052963,0,1317398107789052963,imu_link,-0.003793599114652012,0.0027246564588767216,0.02724850388653922,0.9996177788979564,0.0,0.0,0.0,0.0,0.0,0.0,0.0,0.0,0.0,-0.044183583413663,0.021971999114665,0.0043511688802965,0.0,0.0,0.0,0.0,0.0,0.0,0.0,0.0,0.0,-0.19002804824552,0.28005862646144,10.155475127452,0.0,0.0,0.0,0.0,0.0,0.0,0.0,0.0,0.0
1317398107899063110,0,1317398107899063110,imu_link,-0.006528287615876535,0.004057672929680268,0.027251147756306524,0.9995990654743351,0.0,0.0,0.0,0.0,0.0,0.0,0.0,0.0,0.0,-0.047320351739452,0.020443076698405,6.8842103136532e-05,0.0,0.0,0.0,0.0,0.0,0.0,0.0,0.0,0.0,-0.35837262681222,0.014790574442177,9.641910978301,0.0,0.0,0.0,0.0,0.0,0.0,0.0,0.0,0.0
1317398107999245882,0,1317398107999245882,imu_link,-0.008130274404651656,0.003689577221679667,0.0267332702741933,0.9996027300475312,0.0,0.0,0.0,0.0,0.0,0.0,0.0,0.0,0.0,-0.03293258533696,-0.0044585194011547,-0.0085135730072352,0.0,0.0,0.0,0.0,0.0,0.0,0.0,0.0,0.0,-0.55484926570938,-0.084147661377177,9.5484873394399,0.0,0.0,0.0,0.0,0.0,0.0,0.0,0.0,0.0
1317398108109056949,0,1317398108109056949,imu_link,-0.00976079886281606,0.0010021979599100816,0.02609317296074727,0.9996113588438504,0.0,0.0,0.0,0.0,0.0,0.0,0.0,0.0,0.0,-0.028968260996249,-0.045148852363853,-0.010413459694985,0.0,0.0,0.0,0.0,0.0,0.0,0.0,0.0,0.0,-0.23556413425195,-0.12629652830668,9.5370323524563,0.0,0.0,0.0,0.0,0.0,0.0,0.0,0.0,0.0
1317398108209053039,0,1317398108209053039,imu_link,-0.01020758568315744,-0.0004511722445645678,0.025765045770138863,0.9996158082256349,0.0,0.0,0.0,0.0,0.0,0.0,0.0,0.0,0.0,-0.011828459326039,-0.030096412035484,-0.0071394367574973,0.0,0.0,0.0,0.0,0.0,0.0,0.0,0.0,0.0,-0.33762198122525,-0.25234666174057,10.335689924857,0.0,0.0,0.0,0.0,0.0,0.0,0.0,0.0,0.0
1317398108309101104,0,1317398108309101104,imu_link,-0.00977964322071634,-0.0006223337032388698,0.025522517936762613,0.9996262163215833,0.0,0.0,0.0,0.0,0.0,0.0,0.0,0.0,0.0,0.0059618052315948,-0.0083863811376914,-0.0049300950347699,0.0,0.0,0.0,0.0,0.0,0.0,0.0,0.0,0.0,-0.36412910372011,-0.09794492243355,10.362956764265,0.0,0.0,0.0,0.0,0.0,0.0,0.0,0.0,0.0
1317398108419037103,0,1317398108419037103,imu_link,-0.009187201045718067,-4.3594937701731004e-05,0.025261141001612357,0.9996386688157495,0.0,0.0,0.0,0.0,0.0,0.0,0.0,0.0,0.0,0.012227139558508,0.0073309110140509,-0.0052273596528976,0.0,0.0,0.0,0.0,0.0,0.0,0.0,0.0,0.0,-0.37429263325135,0.13112849872012,9.8654744064227,0.0,0.0,0.0,0.0,0.0,0.0,0.0,0.0,0.0
1317398108519258975,0,1317398108519258975,imu_link,-0.008671861526690902,-0.00022961675107293099,0.024970015191969917,0.999650561163811,0.0,0.0,0.0,0.0,0.0,0.0,0.0,0.0,0.0,0.012022143343357,-0.0036642976196001,-0.0059463804198093,0.0,0.0,0.0,0.0,0.0,0.0,0.0,0.0,0.0,-0.5600860240683,-0.0062094020086944,9.6758362715923,0.0,0.0,0.0,0.0,0.0,0.0,0.0,0.0,0.0
1317398108629050016,0,1317398108629050016,imu_link,-0.007960203119230416,-0.0016437449094176579,0.024709261738026577,0.9996616355814277,0.0,0.0,0.0,0.0,0.0,0.0,0.0,0.0,0.0,0.010516063907945,-0.022630853965791,-0.0048822547708177,0.0,0.0,0.0,0.0,0.0,0.0,0.0,0.0,0.0,-0.47588814551877,0.0029662937979026,9.7904911254212,0.0,0.0,0.0,0.0,0.0,0.0,0.0,0.0,0.0
1317398108729065895,0,1317398108729065895,imu_link,-0.008071197388156438,-0.002519521068890607,0.024430983353213753,0.9996657615616832,0.0,0.0,0.0,0.0,0.0,0.0,0.0,0.0,0.0,-0.00022221988035373,-0.017085579097058,-0.0059068493065377,0.0,0.0,0.0,0.0,0.0,0.0,0.0,0.0,0.0,-0.43244808162452,0.083697977965832,9.9357895364285,0.0,0.0,0.0,0.0,0.0,0.0,0.0,0.0,0.0
1317398108838996887,0,1317398108838996887,imu_link,-0.008974726845288996,-0.0026715544063637456,0.023810166725812022,0.999672642936474,0.0,0.0,0.0,0.0,0.0,0.0,0.0,0.0,0.0,-0.016387254072784,-0.0038477091252053,-0.011338890492851,0.0,0.0,0.0,0.0,0.0,0.0,0.0,0.0,0.0,-0.40570329185116,0.0044931691337266,9.916813800903,0.0,0.0,0.0,0.0,0.0,0.0,0.0,0.0,0.0
1317398108939059019,0,1317398108939059019,imu_link,-0.009846359826158713,-0.002455634955925243,0.022787934213897264,0.9996888161370017,0.0,0.0,0.0,0.0,0.0,0.0,0.0,0.0,0.0,-0.013804080914221,0.0030186671241235,-0.020048916666135,0.0,0.0,0.0,0.0,0.0,0.0,0.0,0.0,0.0,-0.47667570429441,-0.12798984521295,10.206592241571,0.0,0.0,0.0,0.0,0.0,0.0,0.0,0.0,0.0
1317398109039114952,0,1317398109039114952,imu_link,-0.010108200286608844,-0.0025776998301058705,0.021268400903643025,0.9997193780624409,0.0,0.0,0.0,0.0,0.0,0.0,0.0,0.0,0.0,-0.0044155658210492,-0.006245628663134,-0.02876910132384,0.0,0.0,0.0,0.0,0.0,0.0,0.0,0.0,0.0,-0.63527120774539,-0.33307847204562,9.5199029992039,0.0,0.0,0.0,0.0,0.0,0.0,0.0,0.0,0.0
1317398109149022102,0,1317398109149022102,imu_link,-0.010268429678465116,-0.004231226131536922,0.01964199177694866,0.9997453917055065,0.0,0.0,0.0,0.0,0.0,0.0,0.0,0.0,0.0,-0.0046761932121931,-0.027281074098935,-0.02963733834173,0.0,0.0,0.0,0.0,0.0,0.0,0.0,0.0,0.0,-0.45025805345554,-0.18009670122629,9.7188837275283,0.0,0.0,0.0,0.0,0.0,0.0,0.0,0.0,0.0
1317398109249120950,0,1317398109249120950,imu_link,-0.010861017890062089,-0.005097802977588407,0.01797172062070015,0.999766506717006,0.0,0.0,0.0,0.0,0.0,0.0,0.0,0.0,0.0,-0.014904801358828,-0.021202728218397,-0.032086863607819,0.0,0.0,0.0,0.0,0.0,0.0,0.0,0.0,0.0,-0.43507045005016,-0.16220780963578,9.9550601527568,0.0,0.0,0.0,0.0,0.0,0.0,0.0,0.0,0.0
1317398109359025955,0,1317398109359025955,imu_link,-0.011046763070839502,-0.005066019191491285,0.016298872342100656,0.9997933042562267,0.0,0.0,0.0,0.0,0.0,0.0,0.0,0.0,0.0,0.0017962485746446,-0.00078849333588368,-0.032579382290023,0.0,0.0,0.0,0.0,0.0,0.0,0.0,0.0,0.0,-0.29715510283158,-0.36480485643607,10.268378166326,0.0,0.0,0.0,0.0,0.0,0.0,0.0,0.0,0.0
1317398109459209918,0,1317398109459209918,imu_link,-0.010521679830858076,-0.004173070571671,0.014863160621458028,0.9998254678652077,0.0,0.0,0.0,0.0,0.0,0.0,0.0,0.0,0.0,0.0088434521071113,0.016871720572564,-0.02865562135995,0.0,0.0,0.0,0.0,0.0,0.0,0.0,0.0,0.0,-0.25403976312139,-0.20904578663723,9.6073158734201,0.0,0.0,0.0,0.0,0.0,0.0,0.0,0.0,0.0
1317398109569066047,0,1317398109569066047,imu_link,-0.009722467044013177,-0.004587459481115706,0.013508377517579032,0.9998509651877772,0.0,0.0,0.0,0.0,0.0,0.0,0.0,0.0,0.0,0.016561979293521,-0.0054167083251372,-0.023524496123711,0.0,0.0,0.0,0.0,0.0,0.0,0.0,0.0,0.0,-0.36534504328609,-0.054716398438434,9.5190018793503,0.0,0.0,0.0,0.0,0.0,0.0,0.0,0.0,0.0
1317398109669011116,0,1317398109669011116,imu_link,-0.011858135377868315,-0.007082282596198405,0.012587804626975143,0.9998253712890371,0.0,0.0,0.0,0.0,0.0,0.0,0.0,0.0,0.0,-0.032824064379712,-0.047266675263864,-0.017439019477745,0.0,0.0,0.0,0.0,0.0,0.0,0.0,0.0,0.0,-0.42178929442457,0.13052789215847,9.7743602485849,0.0,0.0,0.0,0.0,0.0,0.0,0.0,0.0,0.0
1317398109769007921,0,1317398109769007921,imu_link,-0.013421951798016566,-0.010339302596004529,0.011794297066556369,0.9997868995883402,0.0,0.0,0.0,0.0,0.0,0.0,0.0,0.0,0.0,-0.02662496010938,-0.060056844297729,-0.016092467718853,0.0,0.0,0.0,0.0,0.0,0.0,0.0,0.0,0.0,-0.14924309402465,-0.20228299832686,9.831811740113,0.0,0.0,0.0,0.0,0.0,0.0,0.0,0.0,0.0
1317398109879070997,0,1317398109879070997,imu_link,-0.0112499864531087,-0.012331233271750971,0.010405522671868318,0.9998065330796392,0.0,0.0,0.0,0.0,0.0,0.0,0.0,0.0,0.0,0.029805121322374,-0.032596824876644,-0.024798226706164,0.0,0.0,0.0,0.0,0.0,0.0,0.0,0.0,0.0,-0.034380541251822,-0.51198341454707,10.209830441395,0.0,0.0,0.0,0.0,0.0,0.0,0.0,0.0,0.0
1317398109979218006,0,1317398109979218006,imu_link,-0.010148921966504416,-0.011332450807166964,0.009076735136065103,0.999843081598753,0.0,0.0,0.0,0.0,0.0,0.0,0.0,0.0,0.0,0.018849925076262,0.014918822042239,-0.027935739567471,0.0,0.0,0.0,0.0,0.0,0.0,0.0,0.0,0.0,-0.058055561215731,0.18568221715449,10.695656138242,0.0,0.0,0.0,0.0,0.0,0.0,0.0,0.0,0.0
1317398110089014053,0,1317398110089014053,imu_link,-0.01096496181119299,-0.00722757110242682,0.007159721591390227,0.999888128850009,0.0,0.0,0.0,0.0,0.0,0.0,0.0,0.0,0.0,-0.013510578150583,0.06928127209559,-0.033626042082651,0.0,0.0,0.0,0.0,0.0,0.0,0.0,0.0,0.0,-0.41988018030341,0.25026497121063,10.109700664872,0.0,0.0,0.0,0.0,0.0,0.0,0.0,0.0,0.0
1317398110188988924,0,1317398110188988924,imu_link,-0.011781779431333001,-0.005953820040934865,0.00605407839386727,0.9998945393566026,0.0,0.0,0.0,0.0,0.0,0.0,0.0,0.0,0.0,-0.0024805565412134,0.029346339520915,-0.022691244299482,0.0,0.0,0.0,0.0,0.0,0.0,0.0,0.0,0.0,-0.5014219631822,-0.77718826300187,9.2363611004779,0.0,0.0,0.0,0.0,0.0,0.0,0.0,0.0,0.0
1317398110299017906,0,1317398110299017906,imu_link,-0.011824299961426253,-0.008013001301954805,0.005235746306060711,0.9998842756545258,0.0,0.0,0.0,0.0,0.0,0.0,0.0,0.0,0.0,-0.0031799176561617,-0.035486387852303,-0.015923469810536,0.0,0.0,0.0,0.0,0.0,0.0,0.0,0.0,0.0,-0.10485648114174,-0.080650391519498,9.0096485853187,0.0,0.0,0.0,0.0,0.0,0.0,0.0,0.0,0.0
1317398110398986101,0,1317398110398986101,imu_link,-0.013119583941789668,-0.009656506180759555,0.004019727638015887,0.9998592251888719,0.0,0.0,0.0,0.0,0.0,0.0,0.0,0.0,0.0,-0.021840573388378,-0.035912904491192,-0.023873407300388,0.0,0.0,0.0,0.0,0.0,0.0,0.0,0.0,0.0,-0.31327815176662,0.12768731531524,10.162593240927,0.0,0.0,0.0,0.0,0.0,0.0,0.0,0.0,0.0
1317398110499128103,0,1317398110499128103,imu_link,-0.013660927442517873,-0.011014456576615131,0.0027889108574719657,0.9998421289303433,0.0,0.0,0.0,0.0,0.0,0.0,0.0,0.0,0.0,-0.0034083522538182,-0.031839674392888,-0.022368407778649,0.0,0.0,0.0,0.0,0.0,0.0,0.0,0.0,0.0,-0.21074963725413,-0.48686365991855,10.369769742142,0.0,0.0,0.0,0.0,0.0,0.0,0.0,0.0,0.0
1317398110608995914,0,1317398110608995914,imu_link,-0.011883670904184336,-0.012658960451190287,0.0017148892535074445,0.999847782535414,0.0,0.0,0.0,0.0,0.0,0.0,0.0,0.0,0.0,0.027098305596508,-0.029966228699432,-0.018115842649517,0.0,0.0,0.0,0.0,0.0,0.0,0.0,0.0,0.0,-0.25385253173336,-0.46938248767111,9.9243124335165,0.0,0.0,0.0,0.0,0.0,0.0,0.0,0.0,0.0
1317398110709005117,0,1317398110709005117,imu_link,-0.011509280053092812,-0.014901090019264002,0.0008813513843339866,0.9998223428232812,0.0,0.0,0.0,0.0,0.0,0.0,0.0,0.0,0.0,0.008307938727711,-0.045223125472015,-0.017978088624675,0.0,0.0,0.0,0.0,0.0,0.0,0.0,0.0,0.0,-0.22947291531338,0.37763990597437,9.3959909890083,0.0,0.0,0.0,0.0,0.0,0.0,0.0,0.0,0.0
1317398110818979978,0,1317398110818979978,imu_link,-0.011983616091086221,-0.01646387040577071,-0.000715000673315181,0.9997923897943417,0.0,0.0,0.0,0.0,0.0,0.0,0.0,0.0,0.0,-0.0065045372493877,-0.027640612977664,-0.028287749811425,0.0,0.0,0.0,0.0,0.0,0.0,0.0,0.0,0.0,-0.20056057087293,-0.22703398532924,10.162540263897,0.0,0.0,0.0,0.0,0.0,0.0,0.0,0.0,0.0
1317398110918993949,0,1317398110918993949,imu_link,-0.01187942659430398,-0.01521167683971772,-0.0017951277557201537,0.9998121131631958,0.0,0.0,0.0,0.0,0.0,0.0,0.0,0.0,0.0,0.00675064209485,0.022118311853746,-0.02384320824033,0.0,0.0,0.0,0.0,0.0,0.0,0.0,0.0,0.0,-0.28978295133685,-0.68862521337021,10.857848399445,0.0,0.0,0.0,0.0,0.0,0.0,0.0,0.0,0.0
1317398111029184103,0,1317398111029184103,imu_link,-0.009875256493227248,-0.012919765195751975,-0.004009641952438351,0.9998597310362553,0.0,0.0,0.0,0.0,0.0,0.0,0.0,0.0,0.0,0.031418833684521,0.034055278206351,-0.040480201397135,0.0,0.0,0.0,0.0,0.0,0.0,0.0,0.0,0.0,-0.17021334465039,-0.15973130082902,9.5084385398974,0.0,0.0,0.0,0.0,0.0,0.0,0.0,0.0,0.0
1317398111128999948,0,1317398111128999948,imu_link,-0.008693560359484586,-0.01204857720951112,-0.006710844513923202,0.9998671003495475,0.0,0.0,0.0,0.0,0.0,0.0,0.0,0.0,0.0,0.019965062502275,0.018966297759449,-0.053202599115609,0.0,0.0,0.0,0.0,0.0,0.0,0.0,0.0,0.0,-0.30740587055282,-0.21994828045184,9.463611847624,0.0,0.0,0.0,0.0,0.0,0.0,0.0,0.0,0.0
1317398111228981971,0,1317398111228981971,imu_link,-0.009301325948984753,-0.011637418913582373,-0.009658894686122424,0.9998423683611647,0.0,0.0,0.0,0.0,0.0,0.0,0.0,0.0,0.0,-0.0059282801072176,0.0079282672668404,-0.059768872210799,0.0,0.0,0.0,0.0,0.0,0.0,0.0,0.0,0.0,-0.2181959437576,-0.16216526723043,9.6462998072723,0.0,0.0,0.0,0.0,0.0,0.0,0.0,0.0,0.0
1317398111339011907,0,1317398111339011907,imu_link,-0.010111221707615074,-0.011700912201777316,-0.01409749112916762,0.9997810323231225,0.0,0.0,0.0,0.0,0.0,0.0,0.0,0.0,0.0,-0.013317467457538,-0.002636310518338,-0.08031573868031,0.0,0.0,0.0,0.0,0.0,0.0,0.0,0.0,0.0,-0.24911271428329,-0.51435156342456,9.5687842041532,0.0,0.0,0.0,0.0,0.0,0.0,0.0,0.0,0.0
1317398111439091920,0,1317398111439091920,imu_link,-0.010721651393079191,-0.012134864738994028,-0.01913858962752281,0.9996857034269526,0.0,0.0,0.0,0.0,0.0,0.0,0.0,0.0,0.0,-0.012482627757482,-0.0060884352420535,-0.097983437078084,0.0,0.0,0.0,0.0,0.0,0.0,0.0,0.0,0.0,-0.22294966049997,-0.79665736280324,9.8717880346143,0.0,0.0,0.0,0.0,0.0,0.0,0.0,0.0,0.0
1317398111549127101,0,1317398111549127101,imu_link,-0.010584385009852076,-0.012831539800823445,-0.0255008840728908,0.9995364061862899,0.0,0.0,0.0,0.0,0.0,0.0,0.0,0.0,0.0,-0.0014266470100147,-0.013935652536364,-0.11466845272706,0.0,0.0,0.0,0.0,0.0,0.0,0.0,0.0,0.0,-0.15370210751809,-0.72028172345754,9.7883218194769,0.0,0.0,0.0,0.0,0.0,0.0,0.0,0.0,0.0
1317398111649096965,0,1317398111649096965,imu_link,-0.010473868262916358,-0.013117715984033215,-0.03155934653226078,0.999360911411603,0.0,0.0,0.0,0.0,0.0,0.0,0.0,0.0,0.0,0.0039781647849948,-0.007042759182265,-0.12143385785694,0.0,0.0,0.0,0.0,0.0,0.0,0.0,0.0,0.0,-0.14715019447278,-0.93739019395471,9.9289073095629,0.0,0.0,0.0,0.0,0.0,0.0,0.0,0.0,0.0
1317398111758955001,0,1317398111758955001,imu_link,-0.009140864167966091,-0.013126603420316274,-0.03795117966137183,0.9991515625005141,0.0,0.0,0.0,0.0,0.0,0.0,0.0,0.0,0.0,0.023594143958382,0.00079698288831214,-0.11623216921125,0.0,0.0,0.0,0.0,0.0,0.0,0.0,0.0,0.0,-0.1660645840179,-0.95490586335621,9.9659745564616,0.0,0.0,0.0,0.0,0.0,0.0,0.0,0.0,0.0
1317398111859013080,0,1317398111859013080,imu_link,-0.007769404825980369,-0.012912307485585172,-0.043481534840409265,0.9989405712012953,0.0,0.0,0.0,0.0,0.0,0.0,0.0,0.0,0.0,0.028708600357146,0.0043632851659404,-0.11102076682263,0.0,0.0,0.0,0.0,0.0,0.0,0.0,0.0,0.0,-0.15844622180595,-0.81976868411234,9.9081106381301,0.0,0.0,0.0,0.0,0.0,0.0,0.0,0.0,0.0
1317398111959144115,0,1317398111959144115,imu_link,-0.006003597640626315,-0.012587167147295904,-0.048644181844506466,0.9987188110831065,0.0,0.0,0.0,0.0,0.0,0.0,0.0,0.0,0.0,0.033990705336239,0.0062034222084459,-0.10408350554339,0.0,0.0,0.0,0.0,0.0,0.0,0.0,0.0,0.0,-0.16379254383198,-0.81972657282167,9.7243208189537,0.0,0.0,0.0,0.0,0.0,0.0,0.0,0.0,0.0
1317398112069015026,0,1317398112069015026,imu_link,-0.003156950979906148,-0.01245146899811441,-0.053564595844625695,0.9984817618025387,0.0,0.0,0.0,0.0,0.0,0.0,0.0,0.0,0.0,0.052184663250812,0.0045078230641698,-0.09047870226982,0.0,0.0,0.0,0.0,0.0,0.0,0.0,0.0,0.0,-0.215589216379,-0.80431214292353,9.9519435197394,0.0,0.0,0.0,0.0,0.0,0.0,0.0,0.0,0.0
1317398112168961048,0,1317398112168961048,imu_link,-0.0005887217726004756,-0.011922087725772584,-0.057471386445815356,0.998275792038918,0.0,0.0,0.0,0.0,0.0,0.0,0.0,0.0,0.0,0.048687808227682,0.011016452689447,-0.079526316719488,0.0,0.0,0.0,0.0,0.0,0.0,0.0,0.0,0.0,-0.2917501009004,-0.45411194541528,9.7243417575884,0.0,0.0,0.0,0.0,0.0,0.0,0.0,0.0,0.0
1317398112279045104,0,1317398112279045104,imu_link,-0.00046885837453576926,-0.011854715238188544,-0.0610624836810967,0.9980634343493112,0.0,0.0,0.0,0.0,0.0,0.0,0.0,0.0,0.0,0.0059590580316256,0.0049255954736305,-0.066389637908144,0.0,0.0,0.0,0.0,0.0,0.0,0.0,0.0,0.0,-0.15085024794041,-0.29786261882326,9.72622597571,0.0,0.0,0.0,0.0,0.0,0.0,0.0,0.0,0.0
1317398112378962039,0,1317398112378962039,imu_link,0.0011456830484832905,-0.01079234543358251,-0.06349627703400924,0.9979230609086129,0.0,0.0,0.0,0.0,0.0,0.0,0.0,0.0,0.0,0.027654698267897,0.02267516230666,-0.051590896649373,0.0,0.0,0.0,0.0,0.0,0.0,0.0,0.0,0.0,-0.19973519353786,-0.82585082952377,9.8627152372822,0.0,0.0,0.0,0.0,0.0,0.0,0.0,0.0,0.0
1317398112489134073,0,1317398112489134073,imu_link,0.004629875038544753,-0.008586995063745061,-0.06478054269741906,0.9978518472502471,0.0,0.0,0.0,0.0,0.0,0.0,0.0,0.0,0.0,0.057813918430133,0.039372591282379,-0.024779748447598,0.0,0.0,0.0,0.0,0.0,0.0,0.0,0.0,0.0,-0.30862593838753,-0.43690609538418,9.8041279017612,0.0,0.0,0.0,0.0,0.0,0.0,0.0,0.0,0.0
1317398112588917016,0,1317398112588917016,imu_link,0.007906043014117316,-0.007371068965770688,-0.0653421730789252,0.9978043707277919,0.0,0.0,0.0,0.0,0.0,0.0,0.0,0.0,0.0,0.062938536250283,0.026304987643651,-0.013173688208848,0.0,0.0,0.0,0.0,0.0,0.0,0.0,0.0,0.0,-0.44541284648133,0.084930373311988,10.01696193327,0.0,0.0,0.0,0.0,0.0,0.0,0.0,0.0,0.0
1317398112688978910,0,1317398112688978910,imu_link,0.008595352969730189,-0.005663655518441273,-0.06592198593556933,0.9977716846472467,0.0,0.0,0.0,0.0,0.0,0.0,0.0,0.0,0.0,0.014226750421981,0.027083276294076,-0.012034472890605,0.0,0.0,0.0,0.0,0.0,0.0,0.0,0.0,0.0,-0.44506476056241,-0.14055382733494,8.8070934585526,0.0,0.0,0.0,0.0,0.0,0.0,0.0,0.0,0.0
1317398112798954010,0,1317398112798954010,imu_link,0.010196778968228128,-0.008242184635880018,-0.06584204223120192,0.9977439138205383,0.0,0.0,0.0,0.0,0.0,0.0,0.0,0.0,0.0,0.021584993409411,-0.038738304950558,-0.00011696372841185,0.0,0.0,0.0,0.0,0.0,0.0,0.0,0.0,0.0,-0.48150720504798,-0.23185083091983,9.4516358687603,0.0,0.0,0.0,0.0,0.0,0.0,0.0,0.0,0.0
1317398112898983955,0,1317398112898983955,imu_link,0.010055274551879706,-0.010107831104173905,-0.0650833091403958,0.997777974338676,0.0,0.0,0.0,0.0,0.0,0.0,0.0,0.0,0.0,0.006533027108916,-0.031430678373157,0.011941077730541,0.0,0.0,0.0,0.0,0.0,0.0,0.0,0.0,0.0,-0.36598155720376,0.28893274495842,10.009101671854,0.0,0.0,0.0,0.0,0.0,0.0,0.0,0.0,0.0
1317398113009196043,0,1317398113009196043,imu_link,0.011085823527708207,-0.010052583276102589,-0.06471520070638358,0.9977915578334596,0.0,0.0,0.0,0.0,0.0,0.0,0.0,0.0,0.0,0.015583733398031,0.001737627652028,0.0094898435129436,0.0,0.0,0.0,0.0,0.0,0.0,0.0,0.0,0.0,-0.39484484365672,-0.14567337226734,10.219965758344,0.0,0.0,0.0,0.0,0.0,0.0,0.0,0.0,0.0
1317398113108952999,0,1317398113108952999,imu_link,0.01195689792938507,-0.009169534030136204,-0.06382814624245,0.9978471425949113,0.0,0.0,0.0,0.0,0.0,0.0,0.0,0.0,0.0,0.017151897943597,0.013612635802539,0.01591914423951,0.0,0.0,0.0,0.0,0.0,0.0,0.0,0.0,0.0,-0.4795360548013,-0.0014503467983585,10.012180771868,0.0,0.0,0.0,0.0,0.0,0.0,0.0,0.0,0.0
1317398113218939065,0,1317398113218939065,imu_link,0.012877472528602326,-0.007122689531201694,-0.06278640552143006,0.9979184862887428,0.0,0.0,0.0,0.0,0.0,0.0,0.0,0.0,0.0,0.0043893521040082,0.040459563519827,0.01782056774351,0.0,0.0,0.0,0.0,0.0,0.0,0.0,0.0,0.0,-0.48005163783917,0.31365302396183,9.8789735885352,0.0,0.0,0.0,0.0,0.0,0.0,0.0,0.0,0.0
1317398113318962097,0,1317398113318962097,imu_link,0.013549619049156891,-0.007344795971209116,-0.06202837545663527,0.997955380983526,0.0,0.0,0.0,0.0,0.0,0.0,0.0,0.0,0.0,0.018563733612474,-0.0030300160259922,0.016742385294677,0.0,0.0,0.0,0.0,0.0,0.0,0.0,0.0,0.0,-0.70358708446311,0.2506363546848,9.2533818795851,0.0,0.0,0.0,0.0,0.0,0.0,0.0,0.0,0.0
1317398113418941020,0,1317398113418941020,imu_link,0.013985570488581303,-0.0086121290693105,-0.060904706109225076,0.9980084427622601,0.0,0.0,0.0,0.0,0.0,0.0,0.0,0.0,0.0,0.011313759722596,-0.021347960632675,0.023902938267894,0.0,0.0,0.0,0.0,0.0,0.0,0.0,0.0,0.0,-0.50538447034712,-0.0045425551156024,9.5685328474411,0.0,0.0,0.0,0.0,0.0,0.0,0.0,0.0,0.0
1317398113529006004,0,1317398113529006004,imu_link,0.014836235063495098,-0.009276148786940466,-0.05858543143557871,0.9981290429680574,0.0,0.0,0.0,0.0,0.0,0.0,0.0,0.0,0.0,0.016116689793077,-0.010537195210371,0.040115041040002,0.0,0.0,0.0,0.0,0.0,0.0,0.0,0.0,0.0,-0.46861897936336,0.14305629440045,10.140945843835,0.0,0.0,0.0,0.0,0.0,0.0,0.0,0.0,0.0
1317398113628945112,0,1317398113628945112,imu_link,0.015667440322391164,-0.00879809632410446,-0.055957936983313306,0.9982714230625794,0.0,0.0,0.0,0.0,0.0,0.0,0.0,0.0,0.0,0.011849834691326,0.006410774939886,0.050505873080754,0.0,0.0,0.0,0.0,0.0,0.0,0.0,0.0,0.0,-0.50714953560645,0.35515118724424,10.038660980665,0.0,0.0,0.0,0.0,0.0,0.0,0.0,0.0,0.0
1317398113738946914,0,1317398113738946914,imu_link,0.01647774293073284,-0.007585501663754816,-0.05290940549222454,0.9984345441554381,0.0,0.0,0.0,0.0,0.0,0.0,0.0,0.0,0.0,0.018993942119833,0.022215601140308,0.053164211148963,0.0,0.0,0.0,0.0,0.0,0.0,0.0,0.0,0.0,-0.48587765062029,0.27127219032154,9.88606575426,0.0,0.0,0.0,0.0,0.0,0.0,0.0,0.0,0.0
1317398113839015960,0,1317398113839015960,imu_link,0.016568105259096605,-0.006618828351460535,-0.05051580759526618,0.9985638898850566,0.0,0.0,0.0,0.0,0.0,0.0,0.0,0.0,0.0,0.00038104675290044,0.018975112076512,0.048775528010384,0.0,0.0,0.0,0.0,0.0,0.0,0.0,0.0,0.0,-0.53931569167833,0.50686308167482,9.5756695439062,0.0,0.0,0.0,0.0,0.0,0.0,0.0,0.0,0.0
1317398113938957929,0,1317398113938957929,imu_link,0.016568602027114115,-0.006186101066215673,-0.04846317488875354,0.9986683805248706,0.0,0.0,0.0,0.0,0.0,0.0,0.0,0.0,0.0,0.00037303617868497,0.0088850592017687,0.041048306731984,0.0,0.0,0.0,0.0,0.0,0.0,0.0,0.0,0.0,-0.47466838052739,0.28948756610146,9.649366132008,0.0,0.0,0.0,0.0,0.0,0.0,0.0,0.0,0.0
1317398114049021005,0,1317398114049021005,imu_link,0.01717729488995212,-0.005368312585642484,-0.046325241534938146,0.9987642833807064,0.0,0.0,0.0,0.0,0.0,0.0,0.0,0.0,0.0,0.0083082475360363,0.01453034035128,0.039057624593569,0.0,0.0,0.0,0.0,0.0,0.0,0.0,0.0,0.0,-0.40684573860623,0.1866624145201,9.7329801547907,0.0,0.0,0.0,0.0,0.0,0.0,0.0,0.0,0.0
1317398114148957967,0,1317398114148957967,imu_link,0.018543090270617218,-0.004170644839866311,-0.04442613403649543,0.9988318567904244,0.0,0.0,0.0,0.0,0.0,0.0,0.0,0.0,0.0,0.027174766013921,0.02361335349663,0.037277966775745,0.0,0.0,0.0,0.0,0.0,0.0,0.0,0.0,0.0,-0.40972998675289,-0.092102004792625,9.544572504561,0.0,0.0,0.0,0.0,0.0,0.0,0.0,0.0,0.0
1317398114258953094,0,1317398114258953094,imu_link,0.02028132033872371,-0.0033642485446563437,-0.0422577127272972,0.9988952075128328,0.0,0.0,0.0,0.0,0.0,0.0,0.0,0.0,0.0,0.021662162961153,0.018001539510091,0.038885406983996,0.0,0.0,0.0,0.0,0.0,0.0,0.0,0.0,0.0,-0.54273098239754,0.50411606420982,10.054968664906,0.0,0.0,0.0,0.0,0.0,0.0,0.0,0.0,0.0
1317398114358923912,0,1317398114358923912,imu_link,0.019443410358810025,-0.002557037831393933,-0.04057639362155411,0.9989839696570794,0.0,0.0,0.0,0.0,0.0,0.0,0.0,0.0,0.0,-0.0093418207712447,0.013200034383067,0.03362178898441,0.0,0.0,0.0,0.0,0.0,0.0,0.0,0.0,0.0,-0.62450584907926,0.65873110926392,9.7860376743582,0.0,0.0,0.0,0.0,0.0,0.0,0.0,0.0,0.0
1317398114459085941,0,1317398114459085941,imu_link,0.017914559619440953,-0.0031015069090046146,-0.03877686610360951,0.9990824810113116,0.0,0.0,0.0,0.0,0.0,0.0,0.0,0.0,0.0,-0.025181879247266,-0.0098399514782346,0.035824259240241,0.0,0.0,0.0,0.0,0.0,0.0,0.0,0.0,0.0,-0.53161437571686,0.14495080431696,9.3568876105879,0.0,0.0,0.0,0.0,0.0,0.0,0.0,0.0,0.0
1317398114568952083,0,1317398114568952083,imu_link,0.018342116269616824,-0.004849283506899572,-0.03626997526839557,0.9991619188671331,0.0,0.0,0.0,0.0,0.0,0.0,0.0,0.0,0.0,0.0094500763812305,-0.027803253134397,0.044700716823603,0.0,0.0,0.0,0.0,0.0,0.0,0.0,0.0,0.0,-0.47010720854239,-0.046012009592704,9.6314349331605,0.0,0.0,0.0,0.0,0.0,0.0,0.0,0.0,0.0
