%time field.header.seq field.header.stamp field.header.frame_id field.orientation.x field.orientation.y field.orientation.z field.orientation.w field.orientation_covariance0 field.orientation_covariance1 field.orientation_covariance2 field.orientation_covariance3 field.orientation_covariance4 field.orientation_covariance5 field.orientation_covariance6 field.orientation_covariance7 field.orientation_covariance8 field.angular_velocity.x field.angular_velocity.y field.angular_velocity.z field.angular_velocity_covariance0 field.angular_velocity_covariance1 field.angular_velocity_covariance2 field.angular_velocity_covariance3 field.angular_velocity_covariance4 field.angular_velocity_covariance5 field.angular_velocity_covariance6 field.angular_velocity_covariance7 field.angular_velocity_covariance8 field.linear_acceleration.x field.linear_acceleration.y field.linear_acceleration.z field.linear_acceleration_covariance0 field.linear_acceleration_covariance1 field.linear_acceleration_covariance2 field.linear_acceleration_covariance3 field.linear_acceleration_covariance4 field.linear_acceleration_covariance5 field.linear_acceleration_covariance6 field.linear_acceleration_covariance7 field.linear_acceleration_covariance8
1317379361900998115 0 1317379361900998115 imu_link 0.010935053784873847 0.0043334447197907605 -0.2167516152033228 0.976155921542421 0.0 0.0 0.0 0.0 0.0 0.0 0.0 0.0 0.0 0.00878702125719 -0.00170113454759 0.01108071257471 0.0 0.0 0.0 0.0 0.0 0.0 0.0 0.0 0.0 -0.08150861766723 -0.5583159747491 10.344361228497 0.0 0.0 0.0 0.0 0.0 0.0 0.0 0.0 0.0
1317379362001003026 0 1317379362001003026 imu_link 0.010423025041189192 0.004229436883957262 -0.2172264590861862 0.9760564214662555 0.0 0.0 0.0 0.0 0.0 0.0 0.0 0.0 0.0 0.00753130630371 -0.00174344113073 0.00964208270484 0.0 0.0 0.0 0.0 0.0 0.0 0.0 0.0 0.0 -0.04033718881855 -0.52455683381413 10.30992889764695 0.0 0.0 0.0 0.0 0.0 0.0 0.0 0.0 0.0
1317379362101006984 0 1317379362101006984 imu_link 0.009910892561824404 0.004125929471811285 -0.21770139290853366 0.9759563793737432 0.0 0.0 0.0 0.0 0.0 0.0 0.0 0.0 0.0 0.00627559135023 -0.00178574771387 0.00820345283496 0.0 0.0 0.0 0.0 0.0 0.0 0.0 0.0 0.0 0.00083424003012 -0.49079769287915 10.2754965667969 0.0 0.0 0.0 0.0 0.0 0.0 0.0 0.0 0.0
1317379362201011896 0 1317379362201011896 imu_link 0.009398656915574684 0.004022922673781481 -0.2181764161023647 0.9758557950835112 0.0 0.0 0.0 0.0 0.0 0.0 0.0 0.0 0.0 0.00501987639675 -0.00182805429701 0.00676482296508 0.0 0.0 0.0 0.0 0.0 0.0 0.0 0.0 0.0 0.0420056688788 -0.45703855194418 10.24106423594685 0.0 0.0 0.0 0.0 0.0 0.0 0.0 0.0 0.0
1317379362301017045 0 1317379362301017045 imu_link 0.008886318671509387 0.0039204166796623675 -0.21865152809940575 0.9757546684148228 0.0 0.0 0.0 0.0 0.0 0.0 0.0 0.0 0.0 0.00376416144327 -0.00187036088015 0.00532619309521 0.0 0.0 0.0 0.0 0.0 0.0 0.0 0.0 0.0 0.08317709772747 -0.4232794110092 10.2066319050968 0.0 0.0 0.0 0.0 0.0 0.0 0.0 0.0 0.0
1317379362401021003 0 1317379362401021003 imu_link 0.008373878398971281 0.0038184116786139696 -0.21912672833111035 0.9756529991875779 0.0 0.0 0.0 0.0 0.0 0.0 0.0 0.0 0.0 0.00250844648979 -0.00191266746329 0.00388756322533 0.0 0.0 0.0 0.0 0.0 0.0 0.0 0.0 0.0 0.12434852657615 -0.38952027007422 10.17219957424675 0.0 0.0 0.0 0.0 0.0 0.0 0.0 0.0 0.0
1317379362501025915 0 1317379362501025915 imu_link 0.007861336667575828 0.0037169078591614596 -0.21960201622866019 0.9755507872223119 0.0 0.0 0.0 0.0 0.0 0.0 0.0 0.0 0.0 0.00125273153631 -0.00195497404643 0.00244893335546 0.0 0.0 0.0 0.0 0.0 0.0 0.0 0.0 0.0 0.16551995542482 -0.35576112913925 10.1377672433967 0.0 0.0 0.0 0.0 0.0 0.0 0.0 0.0 0.0
1317379362601031064 0 1317379362601031064 imu_link 0.007348694047210474 0.0036159054091947883 -0.22007739122296588 0.975448032340199 0.0 0.0 0.0 0.0 0.0 0.0 0.0 0.0 0.0 -2.98341717e-06 -0.00199728062957 0.00101030348558 0.0 0.0 0.0 0.0 0.0 0.0 0.0 0.0 0.0 0.2066913842735 -0.32200198820427 10.10333491254665 0.0 0.0 0.0 0.0 0.0 0.0 0.0 0.0 0.0
1317379362701035976 0 1317379362701035976 imu_link 0.006835951108033902 0.003515404515968325 -0.22055285274466738 0.975344734363049 0.0 0.0 0.0 0.0 0.0 0.0 0.0 0.0 0.0 -0.00125869837065 -0.00203958721271 -0.00042832638429 0.0 0.0 0.0 0.0 0.0 0.0 0.0 0.0 0.0 0.24786281312217 -0.28824284726929 10.0689025816966 0.0 0.0 0.0 0.0 0.0 0.0 0.0 0.0 0.0
1317379362801039934 0 1317379362801039934 imu_link 0.006323108420475333 0.003415405366100496 -0.22102840022413492 0.9752408931133105 0.0 0.0 0.0 0.0 0.0 0.0 0.0 0.0 0.0 -0.00251441332413 -0.00208189379585 -0.00186695625417 0.0 0.0 0.0 0.0 0.0 0.0 0.0 0.0 0.0 0.28903424197085 -0.25448370633432 10.03447025084655 0.0 0.0 0.0 0.0 0.0 0.0 0.0 0.0 0.0
1317379362901045083 0 1317379362901045083 imu_link 0.005810166555233786 0.003315908145573426 -0.22150403309146982 0.97513650841407 0.0 0.0 0.0 0.0 0.0 0.0 0.0 0.0 0.0 -0.0037701282776 -0.00212420037899 -0.00330558612405 0.0 0.0 0.0 0.0 0.0 0.0 0.0 0.0 0.0 0.33020567081952 -0.22072456539934 10.0000379199965 0.0 0.0 0.0 0.0 0.0 0.0 0.0 0.0 0.0
1317379363001049995 0 1317379363001049995 imu_link 0.005297126083277353 0.0032169130397325745 -0.221979750776505 0.9750315800890521 0.0 0.0 0.0 0.0 0.0 0.0 0.0 0.0 0.0 -0.00502584323108 -0.00216650696213 -0.00474421599392 0.0 0.0 0.0 0.0 0.0 0.0 0.0 0.0 0.0 0.3713770996682 -0.18696542446437 9.96560558914645 0.0 0.0 0.0 0.0 0.0 0.0 0.0 0.0 0.0
1317379363101053953 0 1317379363101053953 imu_link 0.004783987575842487 0.0031184202332863835 -0.22245555270880576 0.9749261079626201 0.0 0.0 0.0 0.0 0.0 0.0 0.0 0.0 0.0 -0.00628155818456 -0.00220881354527 -0.0061828458638 0.0 0.0 0.0 0.0 0.0 0.0 0.0 0.0 0.0 0.41254852851687 -0.15320628352939 9.9311732582964 0.0 0.0 0.0 0.0 0.0 0.0 0.0 0.0 0.0
1317379363201059103 0 1317379363201059103 imu_link 0.004270751604433262 0.0030204299103059155 -0.2229314383176707 0.9748200918597772 0.0 0.0 0.0 0.0 0.0 0.0 0.0 0.0 0.0 -0.00753727313804 -0.00225112012841 -0.00762147573367 0.0 0.0 0.0 0.0 0.0 0.0 0.0 0.0 0.0 0.45371995736555 -0.11944714259441 9.89674092744635 0.0 0.0 0.0 0.0 0.0 0.0 0.0 0.0 0.0
1317379363301064014 0 1317379363301064014 imu_link 0.003757418740820655 0.0029229422542244965 -0.2234074070321321 0.9747135316061656 0.0 0.0 0.0 0.0 0.0 0.0 0.0 0.0 0.0 -0.0087929880915209 -0.0022934267115479 -0.0090601056035495 0.0 0.0 0.0 0.0 0.0 0.0 0.0 0.0 0.0 0.49489138621422 -0.085688001659439 9.8623085965963 0.0 0.0 0.0 0.0 0.0 0.0 0.0 0.0 0.0
1317379363391201972 0 1317379363391201972 imu_link 0.00331484048131517 0.002779908223358639 -0.22370356918841577 0.9746476271326047 0.0 0.0 0.0 0.0 0.0 0.0 0.0 0.0 0.0 -0.0083800066267249 -0.0046286671698856 -0.0072867751867614 0.0 0.0 0.0 0.0 0.0 0.0 0.0 0.0 0.0 0.55518416680885 -0.020116197381753 9.8175374310957 0.0 0.0 0.0 0.0 0.0 0.0 0.0 0.0 0.0
1317379363501072883 0 1317379363501072883 imu_link 0.002730464625399346 0.002729475673301299 -0.22435959149264775 0.9744987779524049 0.0 0.0 0.0 0.0 0.0 0.0 0.0 0.0 0.0 -0.011304417998479 -0.0023780398778282 -0.011937365343301 0.0 0.0 0.0 0.0 0.0 0.0 0.0 0.0 0.0 0.57723424391157 -0.018169719789487 9.7934439348962 0.0 0.0 0.0 0.0 0.0 0.0 0.0 0.0 0.0
1317379363601013898 0 1317379363601013898 imu_link 0.0020441771669893515 0.0028265619324195535 -0.22569781928992028 0.9741911138247602 0.0 0.0 0.0 0.0 0.0 0.0 0.0 0.0 0.0 -0.013218131558833 -0.0007720184508054 -0.025930176116316 0.0 0.0 0.0 0.0 0.0 0.0 0.0 0.0 0.0 0.6049556031157 0.0070484522634816 9.8515697038537 0.0 0.0 0.0 0.0 0.0 0.0 0.0 0.0 0.0
1317379363711024999 0 1317379363711024999 imu_link 0.0015486036366767616 0.00283745749108273 -0.22765113842867743 0.9737373926443874 0.0 0.0 0.0 0.0 0.0 0.0 0.0 0.0 0.0 -0.010015307830352 -0.0017254743796121 -0.034138137671273 0.0 0.0 0.0 0.0 0.0 0.0 0.0 0.0 0.0 0.62800697764489 -0.27530875498769 9.7527940296431 0.0 0.0 0.0 0.0 0.0 0.0 0.0 0.0 0.0
1317379363811176061 0 1317379363811176061 imu_link 0.0014375878454601588 0.0026544092927386206 -0.22951228683000247 0.9733010827316262 0.0 0.0 0.0 0.0 0.0 0.0 0.0 0.0 0.0 -0.003045083726315 -0.0026470368250012 -0.037834688860998 0.0 0.0 0.0 0.0 0.0 0.0 0.0 0.0 0.0 0.73372743727339 -0.23587017708818 9.8534476365968 0.0 0.0 0.0 0.0 0.0 0.0 0.0 0.0 0.0
1317379363911164999 0 1317379363911164999 imu_link 0.0015243747033080214 0.0024040935608083134 -0.2318342292936053 0.9727511432754808 0.0 0.0 0.0 0.0 0.0 0.0 0.0 0.0 0.0 0.0012056210713867 -0.0038985093968538 -0.047279959654734 0.0 0.0 0.0 0.0 0.0 0.0 0.0 0.0 0.0 0.82998443118582 -0.1943347355469 9.8601509709316 0.0 0.0 0.0 0.0 0.0 0.0 0.0 0.0 0.0
1317379364021085023 0 1317379364021085023 imu_link 0.00129233572724497 0.0025106973064866916 -0.23487085282453016 0.9720224836704555 0.0 0.0 0.0 0.0 0.0 0.0 0.0 0.0 0.0 -0.0029117788729028 0.00054154845404796 -0.055923300973254 0.0 0.0 0.0 0.0 0.0 0.0 0.0 0.0 0.0 0.83134237022436 -0.30525021432088 9.8428933719024 0.0 0.0 0.0 0.0 0.0 0.0 0.0 0.0 0.0
1317379364120985984 0 1317379364120985984 imu_link 0.0014490929296630535 0.002769894755965777 -0.2377520806687771 0.9713208408916126 0.0 0.0 0.0 0.0 0.0 0.0 0.0 0.0 0.0 0.00074731067004838 0.0053729741657719 -0.059007994763208 0.0 0.0 0.0 0.0 0.0 0.0 0.0 0.0 0.0 0.68403788227764 -0.36866897409586 9.8718759262893 0.0 0.0 0.0 0.0 0.0 0.0 0.0 0.0 0.0
1317379364230993986 0 1317379364230993986 imu_link 0.0013288022871240156 0.002496465431995446 -0.24082058793882746 0.9705655291476337 0.0 0.0 0.0 0.0 0.0 0.0 0.0 0.0 0.0 -0.00076671726295643 -0.0054868459400761 -0.057822081668334 0.0 0.0 0.0 0.0 0.0 0.0 0.0 0.0 0.0 0.8629535839124 -0.36334076724864 9.7715844167943 0.0 0.0 0.0 0.0 0.0 0.0 0.0 0.0 0.0
1317379364330990076 0 1317379364330990076 imu_link 0.0020757707904185997 0.0018605345167758858 -0.2438201716336232 0.9698164535062745 0.0 0.0 0.0 0.0 0.0 0.0 0.0 0.0 0.0 0.013757786841931 -0.0078287071362338 -0.061717621378739 0.0 0.0 0.0 0.0 0.0 0.0 0.0 0.0 0.0 1.0146204698335 -0.46047734008923 9.778414859812 0.0 0.0 0.0 0.0 0.0 0.0 0.0 0.0 0.0
1317379364431184053 0 1317379364431184053 imu_link 0.0025282800489413856 0.001533272086218172 -0.24664967798106818 0.9691001977239192 0.0 0.0 0.0 0.0 0.0 0.0 0.0 0.0 0.0 0.0087849813509572 -0.0052954194950364 -0.059250269935593 0.0 0.0 0.0 0.0 0.0 0.0 0.0 0.0 0.0 1.1334051674074 -0.33288610991761 9.7438845767026 0.0 0.0 0.0 0.0 0.0 0.0 0.0 0.0 0.0
1317379364541043996 0 1317379364541043996 imu_link 0.001347152983003928 0.0009784834227924792 -0.2498165951198097 0.9682917414456124 0.0 0.0 0.0 0.0 0.0 0.0 0.0 0.0 0.0 -0.020568948588645 -0.016246701343529 -0.059579308568913 0.0 0.0 0.0 0.0 0.0 0.0 0.0 0.0 0.0 1.1075194075265 -0.0048337250855491 9.7024605174699 0.0 0.0 0.0 0.0 0.0 0.0 0.0 0.0 0.0
1317379364641007900 0 1317379364641007900 imu_link -0.0008949649403405429 -7.465749595383334e-06 -0.25283315334268525 0.967509480859393 0.0 0.0 0.0 0.0 0.0 0.0 0.0 0.0 0.0 -0.035080817715525 -0.026228863896546 -0.06267893970934 0.0 0.0 0.0 0.0 0.0 0.0 0.0 0.0 0.0 1.3049912941449 -0.21818081781364 10.028635105073 0.0 0.0 0.0 0.0 0.0 0.0 0.0 0.0 0.0
1317379364750988006 0 1317379364750988006 imu_link 8.588781109015198e-05 -0.0005704686471500215 -0.2558797798100186 0.9667084387100295 0.0 0.0 0.0 0.0 0.0 0.0 0.0 0.0 0.0 0.019752133796022 -0.0084517822283006 -0.057373931307048 0.0 0.0 0.0 0.0 0.0 0.0 0.0 0.0 0.0 1.3975266411443 -1.1140450282292 9.8890738007191 0.0 0.0 0.0 0.0 0.0 0.0 0.0 0.0 0.0
1317379364850994110 0 1317379364850994110 imu_link 0.003838969010788728 -0.00018214823274214362 -0.2580066446308891 0.9661354979842451 0.0 0.0 0.0 0.0 0.0 0.0 0.0 0.0 0.0 0.060952655610849 0.019203250711236 -0.046015692983486 0.0 0.0 0.0 0.0 0.0 0.0 0.0 0.0 0.0 1.4953405156523 -0.57561295821836 9.9178863267694 0.0 0.0 0.0 0.0 0.0 0.0 0.0 0.0 0.0
1317379364951062917 0 1317379364951062917 imu_link 0.0069976325566225486 0.0005173200003561194 -0.2602320912490897 0.965520597503101 0.0 0.0 0.0 0.0 0.0 0.0 0.0 0.0 0.0 0.051110933171012 0.029238957671629 -0.04714326544208 0.0 0.0 0.0 0.0 0.0 0.0 0.0 0.0 0.0 1.4307640600229 0.19569244938028 10.108465104692 0.0 0.0 0.0 0.0 0.0 0.0 0.0 0.0 0.0
1317379365060981988 0 1317379365060981988 imu_link 0.007007194755356194 0.002799379518483148 -0.26256735818045557 0.9648841615002851 0.0 0.0 0.0 0.0 0.0 0.0 0.0 0.0 0.0 -0.0093952864274065 0.039219673054402 -0.042762890444683 0.0 0.0 0.0 0.0 0.0 0.0 0.0 0.0 0.0 1.3780854975401 -0.055657730154065 9.6882022728372 0.0 0.0 0.0 0.0 0.0 0.0 0.0 0.0 0.0
1317379365160985946 0 1317379365160985946 imu_link 0.007875980603747243 0.0032952213439723585 -0.26370652443575476 0.964565176344159 0.0 0.0 0.0 0.0 0.0 0.0 0.0 0.0 0.0 0.018666493506152 0.019158730174005 -0.025676698903471 0.0 0.0 0.0 0.0 0.0 0.0 0.0 0.0 0.0 1.3023201726694 -0.07091030688649 9.1828169218029 0.0 0.0 0.0 0.0 0.0 0.0 0.0 0.0 0.0
1317379365270961046 0 1317379365270961046 imu_link 0.009493555897399837 0.0010050442594213864 -0.26376491030264837 0.9645397526154613 0.0 0.0 0.0 0.0 0.0 0.0 0.0 0.0 0.0 0.045363561863064 -0.023060784358388 -0.0035748307748858 0.0 0.0 0.0 0.0 0.0 0.0 0.0 0.0 0.0 1.4247001984436 -0.41712200224406 9.724456832008 0.0 0.0 0.0 0.0 0.0 0.0 0.0 0.0 0.0
1317379365370971918 0 1317379365370971918 imu_link 0.012241136534555629 -0.0005670443744164736 -0.26288756626306287 0.9647486514845738 0.0 0.0 0.0 0.0 0.0 0.0 0.0 0.0 0.0 0.057691573558266 -0.016927762343757 0.016784505897977 0.0 0.0 0.0 0.0 0.0 0.0 0.0 0.0 0.0 1.4647203129918 -0.02817870966454 10.063320009968 0.0 0.0 0.0 0.0 0.0 0.0 0.0 0.0 0.0
1317379365470994949 0 1317379365470994949 imu_link 0.013546683100690793 -0.001354654475218496 -0.2606319089108558 0.9653422503680784 0.0 0.0 0.0 0.0 0.0 0.0 0.0 0.0 0.0 0.027509118974925 -0.012157854202346 0.042516922462717 0.0 0.0 0.0 0.0 0.0 0.0 0.0 0.0 0.0 1.4684198635279 0.44269493694103 9.9936647159079 0.0 0.0 0.0 0.0 0.0 0.0 0.0 0.0 0.0
1317379365581047058 0 1317379365581047058 imu_link 0.01348668353684535 -0.0012160770495375905 -0.2568573271985594 0.9663544608414651 0.0 0.0 0.0 0.0 0.0 0.0 0.0 0.0 0.0 -0.00017384503038086 -0.00015022062042047 0.068738542634994 0.0 0.0 0.0 0.0 0.0 0.0 0.0 0.0 0.0 1.445234665311 0.68316610069294 9.9892291823854 0.0 0.0 0.0 0.0 0.0 0.0 0.0 0.0 0.0
1317379365680965900 0 1317379365680965900 imu_link 0.013600948568232062 -0.000405677277203368 -0.2525536206186431 0.9674872186940794 0.0 0.0 0.0 0.0 0.0 0.0 0.0 0.0 0.0 0.00065839823107257 0.01126440022077 0.086451972428607 0.0 0.0 0.0 0.0 0.0 0.0 0.0 0.0 0.0 1.440171267629 0.63779629978095 9.8873927654844 0.0 0.0 0.0 0.0 0.0 0.0 0.0 0.0 0.0
1317379365790999889 0 1317379365790999889 imu_link 0.014003411560892375 0.0007595801828465133 -0.24758944643439615 0.9687635384947719 0.0 0.0 0.0 0.0 0.0 0.0 0.0 0.0 0.0 0.0024238086307523 0.019935822066629 0.092156277122557 0.0 0.0 0.0 0.0 0.0 0.0 0.0 0.0 0.0 1.2086814699316 0.72598804811132 9.9865876785307 0.0 0.0 0.0 0.0 0.0 0.0 0.0 0.0 0.0
1317379365891130924 0 1317379365891130924 imu_link 0.013846791025449178 0.002529506500656694 -0.24323982918638812 0.9698640386531183 0.0 0.0 0.0 0.0 0.0 0.0 0.0 0.0 0.0 -0.0097067109758813 0.031189828879184 0.088863881384343 0.0 0.0 0.0 0.0 0.0 0.0 0.0 0.0 0.0 0.81854933008546 0.80985095615642 9.8333466077978 0.0 0.0 0.0 0.0 0.0 0.0 0.0 0.0 0.0
1317379365991208076 0 1317379365991208076 imu_link 0.013927373218864907 0.003733202918072204 -0.2395012259283458 0.9707889854391707 0.0 0.0 0.0 0.0 0.0 0.0 0.0 0.0 0.0 -0.0026411041656461 0.021235082195929 0.078065200997199 0.0 0.0 0.0 0.0 0.0 0.0 0.0 0.0 0.0 0.40634474589054 0.66289586693443 9.3834697557762 0.0 0.0 0.0 0.0 0.0 0.0 0.0 0.0 0.0
1317379366100954055 0 1317379366100954055 imu_link 0.013441919861388993 0.0044516049249215105 -0.2358402003629604 0.9716886836311264 0.0 0.0 0.0 0.0 0.0 0.0 0.0 0.0 0.0 -0.011706574348294 0.011379029617653 0.068588464997959 0.0 0.0 0.0 0.0 0.0 0.0 0.0 0.0 0.0 0.10818327169545 0.64095326114651 9.6345386514896 0.0 0.0 0.0 0.0 0.0 0.0 0.0 0.0 0.0
1317379366200953006 0 1317379366200953006 imu_link 0.012964202468894298 0.004895920058171867 -0.2331561874349755 0.9723405533463655 0.0 0.0 0.0 0.0 0.0 0.0 0.0 0.0 0.0 -0.010336769849048 0.0068215604735611 0.056217844523016 0.0 0.0 0.0 0.0 0.0 0.0 0.0 0.0 0.0 -0.032844595609739 0.57681461536311 9.8945523663583 0.0 0.0 0.0 0.0 0.0 0.0 0.0 0.0 0.0
1317379366301018953 0 1317379366301018953 imu_link 0.01243154022755638 0.005097559886031372 -0.2306682803285541 0.9729396775448345 0.0 0.0 0.0 0.0 0.0 0.0 0.0 0.0 0.0 -0.0097238097566639 0.0011340646776174 0.053084481585378 0.0 0.0 0.0 0.0 0.0 0.0 0.0 0.0 0.0 -0.10101152511572 0.45908306478183 9.8094650985152 0.0 0.0 0.0 0.0 0.0 0.0 0.0 0.0 0.0
1317379366411014080 0 1317379366411014080 imu_link 0.012235568937659775 0.005028893276579457 -0.22809057098240346 0.9735500462298308 0.0 0.0 0.0 0.0 0.0 0.0 0.0 0.0 0.0 -0.0015764618402979 -0.0029659813198358 0.049522518509176 0.0 0.0 0.0 0.0 0.0 0.0 0.0 0.0 0.0 -0.16413466923734 0.35014797257793 9.8728533262206 0.0 0.0 0.0 0.0 0.0 0.0 0.0 0.0 0.0
1317379366510977029 0 1317379366510977029 imu_link 0.012204841590321187 0.005061749278713944 -0.22582489290040786 0.9740783019257303 0.0 0.0 0.0 0.0 0.0 0.0 0.0 0.0 0.0 -0.0018453331791337 -0.00098360962244951 0.047811145737377 0.0 0.0 0.0 0.0 0.0 0.0 0.0 0.0 0.0 -0.1742353358576 0.46393336230698 9.8853233108918 0.0 0.0 0.0 0.0 0.0 0.0 0.0 0.0 0.0
1317379366620934009 0 1317379366620934009 imu_link 0.011773473632312525 0.005437266891083212 -0.2235512714131232 0.9746058949631693 0.0 0.0 0.0 0.0 0.0 0.0 0.0 0.0 0.0 -0.0098496497911036 0.0037432547237866 0.043152649092706 0.0 0.0 0.0 0.0 0.0 0.0 0.0 0.0 0.0 -0.13527236286999 0.32898090039494 9.8090315363897 0.0 0.0 0.0 0.0 0.0 0.0 0.0 0.0 0.0
1317379366720974922 0 1317379366720974922 imu_link 0.011256697511670582 0.006012874609916112 -0.22187787526677447 0.9749909438385352 0.0 0.0 0.0 0.0 0.0 0.0 0.0 0.0 0.0 -0.012783036069844 0.0067868327629405 0.035514101061014 0.0 0.0 0.0 0.0 0.0 0.0 0.0 0.0 0.0 -0.19470825096296 0.34139111285995 9.8296439260513 0.0 0.0 0.0 0.0 0.0 0.0 0.0 0.0 0.0
1317379366820951938 0 1317379366820951938 imu_link 0.010397344556422572 0.006622275158161286 -0.22057567272761797 0.9752919631057478 0.0 0.0 0.0 0.0 0.0 0.0 0.0 0.0 0.0 -0.019953987109479 0.0067027098325551 0.028395640685478 0.0 0.0 0.0 0.0 0.0 0.0 0.0 0.0 0.0 -0.24481061640598 0.29645483164038 9.769574113581 0.0 0.0 0.0 0.0 0.0 0.0 0.0 0.0 0.0
1317379366931170940 0 1317379366931170940 imu_link 0.009565465404262013 0.007058738171308623 -0.21979015231456972 0.9754747382851937 0.0 0.0 0.0 0.0 0.0 0.0 0.0 0.0 0.0 -0.014707120761049 0.0025535141043225 0.01591790549456 0.0 0.0 0.0 0.0 0.0 0.0 0.0 0.0 0.0 -0.4314923646076 0.14487977394053 9.7250977870919 0.0 0.0 0.0 0.0 0.0 0.0 0.0 0.0 0.0
1317379367030919075 0 1317379367030919075 imu_link 0.009180212180051717 0.006863672122700656 -0.21939270996658516 0.9755692966277891 0.0 0.0 0.0 0.0 0.0 0.0 0.0 0.0 0.0 -0.0083360940667468 -0.0049200001045746 0.010076463673593 0.0 0.0 0.0 0.0 0.0 0.0 0.0 0.0 0.0 -0.53116159580996 0.051353128321258 9.7960372693614 0.0 0.0 0.0 0.0 0.0 0.0 0.0 0.0 0.0
1317379367141021966 0 1317379367141021966 imu_link 0.008039569262840631 0.00655837550322588 -0.2190249545528347 0.9756640929746033 0.0 0.0 0.0 0.0 0.0 0.0 0.0 0.0 0.0 -0.019464567788463 -0.0090247609291993 0.0073285612263969 0.0 0.0 0.0 0.0 0.0 0.0 0.0 0.0 0.0 -0.6283601007624 0.11202065067535 9.7496845265509 0.0 0.0 0.0 0.0 0.0 0.0 0.0 0.0 0.0
1317379367240952968 0 1317379367240952968 imu_link 0.007039285276496073 0.0065738467424743706 -0.21883964720149796 0.9757132989841465 0.0 0.0 0.0 0.0 0.0 0.0 0.0 0.0 0.0 -0.021311200588133 -0.0036888044732828 0.0053461238072344 0.0 0.0 0.0 0.0 0.0 0.0 0.0 0.0 0.0 -0.76489981702352 0.14810558051354 9.8559269842195 0.0 0.0 0.0 0.0 0.0 0.0 0.0 0.0 0.0
1317379367340971946 0 1317379367340971946 imu_link 0.006242310562778926 0.007127161202500681 -0.21851116976889595 0.975788453415114 0.0 0.0 0.0 0.0 0.0 0.0 0.0 0.0 0.0 -0.017193170695341 0.0053758370843272 0.0070482016734016 0.0 0.0 0.0 0.0 0.0 0.0 0.0 0.0 0.0 -0.9154827324639 -0.019330736339758 9.9951565675276 0.0 0.0 0.0 0.0 0.0 0.0 0.0 0.0 0.0
1317379367450998067 0 1317379367450998067 imu_link 0.005425384231119106 0.007654083781512012 -0.21818460124888103 0.9758624185740924 0.0 0.0 0.0 0.0 0.0 0.0 0.0 0.0 0.0 -0.016591236049203 0.006283324300824 0.0063643552229842 0.0 0.0 0.0 0.0 0.0 0.0 0.0 0.0 0.0 -1.0630943067796 0.050169460147043 9.9489753167088 0.0 0.0 0.0 0.0 0.0 0.0 0.0 0.0 0.0
1317379367550960063 0 1317379367550960063 imu_link 0.004827273928297213 0.007940012972397006 -0.2180016726810939 0.9759041573477718 0.0 0.0 0.0 0.0 0.0 0.0 0.0 0.0 0.0 -0.015798803124679 0.0021498221864281 0.0050566707102397 0.0 0.0 0.0 0.0 0.0 0.0 0.0 0.0 0.0 -1.2111234605144 0.08509521484704 9.6091009180825 0.0 0.0 0.0 0.0 0.0 0.0 0.0 0.0 0.0
1317379367660957098 0 1317379367660957098 imu_link 0.0038236143692944764 0.00802537398008436 -0.2177486916184058 0.9759643849260623 0.0 0.0 0.0 0.0 0.0 0.0 0.0 0.0 0.0 -0.017737833029972 -0.0015186932380185 0.0050737766481018 0.0 0.0 0.0 0.0 0.0 0.0 0.0 0.0 0.0 -1.2970595401798 0.056133575122978 9.7803607065838 0.0 0.0 0.0 0.0 0.0 0.0 0.0 0.0 0.0
1317379367760936021 0 1317379367760936021 imu_link 0.002960500933078223 0.008503802218120717 -0.21772854623525334 0.975967827818286 0.0 0.0 0.0 0.0 0.0 0.0 0.0 0.0 0.0 -0.020071614822209 0.005480347677674 0.0010577036842965 0.0 0.0 0.0 0.0 0.0 0.0 0.0 0.0 0.0 -1.4390875837961 0.10672217129169 9.9824601260115 0.0 0.0 0.0 0.0 0.0 0.0 0.0 0.0 0.0
1317379367860981941 0 1317379367860981941 imu_link 0.0015711693246455794 0.00892037148054206 -0.21790362491671378 0.9759282599903328 0.0 0.0 0.0 0.0 0.0 0.0 0.0 0.0 0.0 -0.027397612389494 0.0014745192252523 -0.0030654390030234 0.0 0.0 0.0 0.0 0.0 0.0 0.0 0.0 0.0 -1.4337532635196 -0.047694752604725 9.7228946853286 0.0 0.0 0.0 0.0 0.0 0.0 0.0 0.0 0.0
1317379367970974922 0 1317379367970974922 imu_link -0.0001434801618009473 0.009293198439056242 -0.21866926565235276 0.9757547684409624 0.0 0.0 0.0 0.0 0.0 0.0 0.0 0.0 0.0 -0.033665278556154 0.00091232671950304 -0.013487344485843 0.0 0.0 0.0 0.0 0.0 0.0 0.0 0.0 0.0 -1.1340152358318 0.032675801539361 9.8137221685154 0.0 0.0 0.0 0.0 0.0 0.0 0.0 0.0 0.0
1317379368070926904 0 1317379368070926904 imu_link -0.001255368821854097 0.009004736495411864 -0.2199900181463672 0.9754597534935668 0.0 0.0 0.0 0.0 0.0 0.0 0.0 0.0 0.0 -0.021440552652597 -0.010016104604146 -0.025578798757894 0.0 0.0 0.0 0.0 0.0 0.0 0.0 0.0 0.0 -1.0078098957427 -0.20458311821583 9.7170814391544 0.0 0.0 0.0 0.0 0.0 0.0 0.0 0.0 0.0
1317379368180984973 0 1317379368180984973 imu_link -0.0022185426382630652 0.00867269522148542 -0.2219395242448421 0.9750193382718778 0.0 0.0 0.0 0.0 0.0 0.0 0.0 0.0 0.0 -0.016225313123973 -0.0078541909807371 -0.035702886426411 0.0 0.0 0.0 0.0 0.0 0.0 0.0 0.0 0.0 -1.014547816807 -0.24202528734083 10.02395032296 0.0 0.0 0.0 0.0 0.0 0.0 0.0 0.0 0.0
1317379368280926942 0 1317379368280926942 imu_link -0.0022839548512710714 0.008923295959182256 -0.22432708733319467 0.9744703772963381 0.0 0.0 0.0 0.0 0.0 0.0 0.0 0.0 0.0 -0.0035604386166854 0.0026692282482529 -0.047511786512998 0.0 0.0 0.0 0.0 0.0 0.0 0.0 0.0 0.0 -1.1332973991764 -0.37497108997121 9.763707870145 0.0 0.0 0.0 0.0 0.0 0.0 0.0 0.0 0.0
1317379368380903005 0 1317379368380903005 imu_link -0.002694473008959076 0.009154897310448516 -0.2268373823253908 0.9738858914935588 0.0 0.0 0.0 0.0 0.0 0.0 0.0 0.0 0.0 -0.010992322400416 0.0025585813939165 -0.050759147312558 0.0 0.0 0.0 0.0 0.0 0.0 0.0 0.0 0.0 -1.3193795550011 -0.32332549821985 9.833606465103 0.0 0.0 0.0 0.0 0.0 0.0 0.0 0.0 0.0
1317379368491082906 0 1317379368491082906 imu_link -0.002900603206537532 0.009563324584183627 -0.23004617456628743 0.97312840205769 0.0 0.0 0.0 0.0 0.0 0.0 0.0 0.0 0.0 -0.0070458946108491 0.0056542003020363 -0.060034188366254 0.0 0.0 0.0 0.0 0.0 0.0 0.0 0.0 0.0 -1.4241119604065 -0.35100685005757 9.8644449053738 0.0 0.0 0.0 0.0 0.0 0.0 0.0 0.0 0.0
1317379368591033935 0 1317379368591033935 imu_link -0.0027375256651334147 0.009806620177366344 -0.23345448987612843 0.9723144230703389 0.0 0.0 0.0 0.0 0.0 0.0 0.0 0.0 0.0 0.0012717241511075 0.0057592516179485 -0.069065720070435 0.0 0.0 0.0 0.0 0.0 0.0 0.0 0.0 0.0 -1.2575635022072 -0.49720711581896 9.761771858455 0.0 0.0 0.0 0.0 0.0 0.0 0.0 0.0 0.0
1317379368700989007 0 1317379368700989007 imu_link -0.0027890546180609405 0.0099303691809827 -0.237935977575634 0.9712260702418332 0.0 0.0 0.0 0.0 0.0 0.0 0.0 0.0 0.0 -0.0026175666407552 0.0020271749958969 -0.082558821308447 0.0 0.0 0.0 0.0 0.0 0.0 0.0 0.0 0.0 -1.0623820723711 -0.42507662561976 9.6467002589773 0.0 0.0 0.0 0.0 0.0 0.0 0.0 0.0 0.0
1317379368800926923 0 1317379368800926923 imu_link -0.0032436967645918134 0.009883067065186735 -0.24274111968385256 0.9700353355580991 0.0 0.0 0.0 0.0 0.0 0.0 0.0 0.0 0.0 -0.0074485625419945 -0.0016086250881989 -0.097675918298912 0.0 0.0 0.0 0.0 0.0 0.0 0.0 0.0 0.0 -0.93862266810889 -0.47286480147775 9.8012338264393 0.0 0.0 0.0 0.0 0.0 0.0 0.0 0.0 0.0
1317379368901004076 0 1317379368901004076 imu_link -0.003356205285774113 0.009905811202051687 -0.24840786882764315 0.9685990612709767 0.0 0.0 0.0 0.0 0.0 0.0 0.0 0.0 0.0 -0.0023284954872641 -0.0016158502947462 -0.1140583519166 0.0 0.0 0.0 0.0 0.0 0.0 0.0 0.0 0.0 -0.9667549551851 -0.7201848444829 9.896090382531 0.0 0.0 0.0 0.0 0.0 0.0 0.0 0.0 0.0
1317379369010952949 0 1317379369010952949 imu_link -0.0028313337806443423 0.009939964810900457 -0.2548696396094736 0.9669201867030791 0.0 0.0 0.0 0.0 0.0 0.0 0.0 0.0 0.0 0.008855698224324 0.0014725551894191 -0.12002236114605 0.0 0.0 0.0 0.0 0.0 0.0 0.0 0.0 0.0 -0.9688718722418 -0.84425441635627 9.7542706060963 0.0 0.0 0.0 0.0 0.0 0.0 0.0 0.0 0.0
1317379369110913038 0 1317379369110913038 imu_link -0.0024605980187014406 0.009640096710127439 -0.2609373609159566 0.9653044637165135 0.0 0.0 0.0 0.0 0.0 0.0 0.0 0.0 0.0 0.006557095478689 -0.0027116811541417 -0.12573256539024 0.0 0.0 0.0 0.0 0.0 0.0 0.0 0.0 0.0 -1.0371477737756 -0.56901383182844 9.8154336957188 0.0 0.0 0.0 0.0 0.0 0.0 0.0 0.0 0.0
1317379369220933914 0 1317379369220933914 imu_link -0.002628032366287104 0.00973305803949003 -0.2684908924000459 0.9632294647306573 0.0 0.0 0.0 0.0 0.0 0.0 0.0 0.0 0.0 -0.0030119116722145 -0.00017304149627254 -0.14234854913449 0.0 0.0 0.0 0.0 0.0 0.0 0.0 0.0 0.0 -1.0033324614503 -0.62991303962723 9.8146587292483 0.0 0.0 0.0 0.0 0.0 0.0 0.0 0.0 0.0
1317379369320903062 0 1317379369320903062 imu_link -0.002578915341192014 0.010005819133132669 -0.27614739450471304 0.961059753234624 0.0 0.0 0.0 0.0 0.0 0.0 0.0 0.0 0.0 -0.00078842280587203 0.0044775491160285 -0.15680938979753 0.0 0.0 0.0 0.0 0.0 0.0 0.0 0.0 0.0 -1.0285566430981 -0.7583438101983 9.6907756249332 0.0 0.0 0.0 0.0 0.0 0.0 0.0 0.0 0.0
1317379369421197891 0 1317379369421197891 imu_link -0.004209126383551715 0.010432194450902071 -0.2842076758753124 0.9586967453515106 0.0 0.0 0.0 0.0 0.0 0.0 0.0 0.0 0.0 -0.025610533470586 -0.00052836109067156 -0.16640600057088 0.0 0.0 0.0 0.0 0.0 0.0 0.0 0.0 0.0 -0.90633954500265 -0.91718563083812 9.9068778730421 0.0 0.0 0.0 0.0 0.0 0.0 0.0 0.0 0.0
1317379369530919075 0 1317379369530919075 imu_link -0.0035847694806702044 0.009696309060358146 -0.2947135760348217 0.9555297165023933 0.0 0.0 0.0 0.0 0.0 0.0 0.0 0.0 0.0 0.0054651769267729 -0.0084904997565964 -0.19528378433938 0.0 0.0 0.0 0.0 0.0 0.0 0.0 0.0 0.0 -0.74504535181947 -1.096542559799 9.8234083288471 0.0 0.0 0.0 0.0 0.0 0.0 0.0 0.0 0.0
1317379369630903005 0 1317379369630903005 imu_link -0.005549294153161129 0.010209226342980724 -0.30538168240960334 0.9521591280245963 0.0 0.0 0.0 0.0 0.0 0.0 0.0 0.0 0.0 -0.032136988631108 -0.0042876278058851 -0.21963777402444 0.0 0.0 0.0 0.0 0.0 0.0 0.0 0.0 0.0 -0.87233243404216 -1.0160665343999 9.9236335150521 0.0 0.0 0.0 0.0 0.0 0.0 0.0 0.0 0.0
1317379369740922927 0 1317379369740922927 imu_link -0.0052783260668876585 0.009018324894937549 -0.31828647318548803 0.947936986343061 0.0 0.0 0.0 0.0 0.0 0.0 0.0 0.0 0.0 0.0015248005136032 -0.020775148114032 -0.2433633901014 0.0 0.0 0.0 0.0 0.0 0.0 0.0 0.0 0.0 -1.0147372284838 -1.4159381052858 9.755368549555 0.0 0.0 0.0 0.0 0.0 0.0 0.0 0.0 0.0
1317379369840899944 0 1317379369840899944 imu_link -0.005395900241593768 0.00817068190295787 -0.33055053969561865 0.9437374978905727 0.0 0.0 0.0 0.0 0.0 0.0 0.0 0.0 0.0 0.0037557598752637 -0.018262683725458 -0.25836495692649 0.0 0.0 0.0 0.0 0.0 0.0 0.0 0.0 0.0 -1.1159050396444 -1.4584037964563 9.2983010261823 0.0 0.0 0.0 0.0 0.0 0.0 0.0 0.0 0.0
1317379369951097011 0 1317379369951097011 imu_link -0.004732523031923178 0.006113919604223495 -0.34488142080314355 0.9386144196621052 0.0 0.0 0.0 0.0 0.0 0.0 0.0 0.0 0.0 0.017584704355174 -0.022313228376151 -0.27671209329319 0.0 0.0 0.0 0.0 0.0 0.0 0.0 0.0 0.0 -1.1117907064062 -1.1467545496365 10.417121429711 0.0 0.0 0.0 0.0 0.0 0.0 0.0 0.0 0.0
1317379370050909042 0 1317379370050909042 imu_link -0.003942849991968225 0.005709081800091848 -0.35857801401827233 0.9334739783098682 0.0 0.0 0.0 0.0 0.0 0.0 0.0 0.0 0.0 0.016904190780168 -0.0044315214345742 -0.29152568543701 0.0 0.0 0.0 0.0 0.0 0.0 0.0 0.0 0.0 -1.0085610268739 -1.3113317655782 9.7416990942103 0.0 0.0 0.0 0.0 0.0 0.0 0.0 0.0 0.0
1317379370150867938 0 1317379370150867938 imu_link -0.0048981655365673 0.004546017654886917 -0.37282478576773365 0.9278776971212862 0.0 0.0 0.0 0.0 0.0 0.0 0.0 0.0 0.0 -0.0056346704782693 -0.029203161766354 -0.30568973340663 0.0 0.0 0.0 0.0 0.0 0.0 0.0 0.0 0.0 -1.1162921452065 -0.96906253183107 9.8118228981718 0.0 0.0 0.0 0.0 0.0 0.0 0.0 0.0 0.0
1317379370260927915 0 1317379370260927915 imu_link -0.005626909183661421 0.00504988604984603 -0.3890813559475239 0.9211723698624261 0.0 0.0 0.0 0.0 0.0 0.0 0.0 0.0 0.0 -0.010767821999578 0.0011205564103279 -0.31883438746078 0.0 0.0 0.0 0.0 0.0 0.0 0.0 0.0 0.0 -0.70039707869834 -1.3844671981927 10.342234678146 0.0 0.0 0.0 0.0 0.0 0.0 0.0 0.0 0.0
1317379370360893011 0 1317379370360893011 imu_link -0.005362943317613618 0.0060503819102084 -0.40416443425902737 0.914650611871983 0.0 0.0 0.0 0.0 0.0 0.0 0.0 0.0 0.0 -0.0036893716629834 0.014812780460213 -0.32954174316797 0.0 0.0 0.0 0.0 0.0 0.0 0.0 0.0 0.0 -1.0249530761084 -1.4456876905949 9.8890116714915 0.0 0.0 0.0 0.0 0.0 0.0 0.0 0.0 0.0
1317379370470957040 0 1317379370470957040 imu_link -0.005094657539423611 0.006402972639799475 -0.421598563989688 0.9067456629329764 0.0 0.0 0.0 0.0 0.0 0.0 0.0 0.0 0.0 -0.0024279783666158 0.0069004900350531 -0.34809490558467 0.0 0.0 0.0 0.0 0.0 0.0 0.0 0.0 0.0 -1.0332025460958 -1.4943659242745 9.757877402786 0.0 0.0 0.0 0.0 0.0 0.0 0.0 0.0 0.0
1317379370570874929 0 1317379370570874929 imu_link -0.005067412621755784 0.006603598702667038 -0.4380872568726071 0.8988939143076502 0.0 0.0 0.0 0.0 0.0 0.0 0.0 0.0 0.0 -0.00027011382017209 0.00062953673896822 -0.36363042565486 0.0 0.0 0.0 0.0 0.0 0.0 0.0 0.0 0.0 -1.0700962462664 -1.5573292572592 9.5309554124738 0.0 0.0 0.0 0.0 0.0 0.0 0.0 0.0 0.0
1317379370680896043 0 1317379370680896043 imu_link -0.0050977502928694456 0.0060702301567216255 -0.45668358936704645 0.8895938761314778 0.0 0.0 0.0 0.0 0.0 0.0 0.0 0.0 0.0 0.00018120143027106 -0.010278200934105 -0.37712231870065 0.0 0.0 0.0 0.0 0.0 0.0 0.0 0.0 0.0 -0.98589167823712 -1.5221991388394 9.5614569363148 0.0 0.0 0.0 0.0 0.0 0.0 0.0 0.0 0.0
1317379370780886888 0 1317379370780886888 imu_link -0.004869703084463918 0.005024612384227144 -0.47392387387143 0.8805380179395744 0.0 0.0 0.0 0.0 0.0 0.0 0.0 0.0 0.0 0.011638995995729 -0.017336892219947 -0.389458471223 0.0 0.0 0.0 0.0 0.0 0.0 0.0 0.0 0.0 -0.65599206764354 -1.5145980214466 9.7378623524477 0.0 0.0 0.0 0.0 0.0 0.0 0.0 0.0 0.0
1317379370880861043 0 1317379370880861043 imu_link -0.004500653005101284 0.003925720572955206 -0.4914511386605366 0.8708846715551795 0.0 0.0 0.0 0.0 0.0 0.0 0.0 0.0 0.0 0.015771865908302 -0.017616513346076 -0.3990699986062 0.0 0.0 0.0 0.0 0.0 0.0 0.0 0.0 0.0 -0.43722707540225 -1.5990834611816 9.8730158126144 0.0 0.0 0.0 0.0 0.0 0.0 0.0 0.0 0.0
1317379370991038084 0 1317379370991038084 imu_link -0.003287652221079686 0.002972809428292867 -0.5108705810936456 0.8596462081112305 0.0 0.0 0.0 0.0 0.0 0.0 0.0 0.0 0.0 0.028524989369248 -0.0059688435820555 -0.40952163282534 0.0 0.0 0.0 0.0 0.0 0.0 0.0 0.0 0.0 -0.39135073260931 -1.6659189325237 9.9740638702819 0.0 0.0 0.0 0.0 0.0 0.0 0.0 0.0 0.0
1317379371090881109 0 1317379371090881109 imu_link -0.0016651900297618382 0.002939572782181166 -0.5289093970714842 0.8486715711884676 0.0 0.0 0.0 0.0 0.0 0.0 0.0 0.0 0.0 0.023862487794224 0.013488119312515 -0.4213917653408 0.0 0.0 0.0 0.0 0.0 0.0 0.0 0.0 0.0 -0.36768603019384 -1.5428017123808 10.065704024348 0.0 0.0 0.0 0.0 0.0 0.0 0.0 0.0 0.0
1317379371200856924 0 1317379371200856924 imu_link 0.00034029854396457363 0.004061948630218111 -0.5487342448803522 0.8359869097454913 0.0 0.0 0.0 0.0 0.0 0.0 0.0 0.0 0.0 0.022652024160699 0.031904419297448 -0.42876614807994 0.0 0.0 0.0 0.0 0.0 0.0 0.0 0.0 0.0 -0.4024018137084 -1.635812085903 9.7897643400561 0.0 0.0 0.0 0.0 0.0 0.0 0.0 0.0 0.0
1317379371300858974 0 1317379371300858974 imu_link 0.0018522653130974064 0.005133289363204032 -0.56677472693487 0.823854736808272 0.0 0.0 0.0 0.0 0.0 0.0 0.0 0.0 0.0 0.010085719486938 0.033164400758141 -0.43651555969707 0.0 0.0 0.0 0.0 0.0 0.0 0.0 0.0 0.0 -0.35043170148672 -1.4205870008329 9.6983546811073 0.0 0.0 0.0 0.0 0.0 0.0 0.0 0.0 0.0
1317379371411000967 0 1317379371411000967 imu_link 0.0024543134392449473 0.007178271822330235 -0.5872238672445499 0.809389015552807 0.0 0.0 0.0 0.0 0.0 0.0 0.0 0.0 0.0 -0.012156690147918 0.034816009409092 -0.45561073030448 0.0 0.0 0.0 0.0 0.0 0.0 0.0 0.0 0.0 -0.35974987196375 -1.5165746838666 9.8457886156171 0.0 0.0 0.0 0.0 0.0 0.0 0.0 0.0 0.0
1317379371510835886 0 1317379371510835886 imu_link 0.003594071672855737 0.008186773959289118 -0.6059329628026251 0.7954654637193135 0.0 0.0 0.0 0.0 0.0 0.0 0.0 0.0 0.0 0.0028824117164428 0.027276535239609 -0.46523767570128 0.0 0.0 0.0 0.0 0.0 0.0 0.0 0.0 0.0 -0.34259651340967 -2.055685182399 9.7464849655792 0.0 0.0 0.0 0.0 0.0 0.0 0.0 0.0 0.0
1317379371610860109 0 1317379371610860109 imu_link 0.005210819260796501 0.008186077041606978 -0.6243433716848064 0.7810897449964043 0.0 0.0 0.0 0.0 0.0 0.0 0.0 0.0 0.0 0.018089860509903 0.018651502034875 -0.46794456291305 0.0 0.0 0.0 0.0 0.0 0.0 0.0 0.0 0.0 -0.23533753028803 -1.9150742830921 9.613002306185 0.0 0.0 0.0 0.0 0.0 0.0 0.0 0.0 0.0
1317379371720854043 0 1317379371720854043 imu_link 0.006472626203024529 0.0071390996193063305 -0.6448190139898062 0.7642745433179595 0.0 0.0 0.0 0.0 0.0 0.0 0.0 0.0 0.0 0.023700777583033 -0.0014890704405426 -0.48314093720275 0.0 0.0 0.0 0.0 0.0 0.0 0.0 0.0 0.0 0.61084405318623 -1.5216030081999 9.2344762872737 0.0 0.0 0.0 0.0 0.0 0.0 0.0 0.0 0.0
1317379371820902109 0 1317379371820902109 imu_link 0.006158055731932063 0.005682380118673903 -0.6635789361958869 0.7480593454686094 0.0 0.0 0.0 0.0 0.0 0.0 0.0 0.0 0.0 0.010570000946368 -0.021138092974287 -0.49398557975591 0.0 0.0 0.0 0.0 0.0 0.0 0.0 0.0 0.0 0.86478517918294 -1.5154229372818 9.5768111097966 0.0 0.0 0.0 0.0 0.0 0.0 0.0 0.0 0.0
1317379371931068897 0 1317379371931068897 imu_link 0.004681299831531113 0.005012375940305706 -0.6840326102288586 0.7294191865195312 0.0 0.0 0.0 0.0 0.0 0.0 0.0 0.0 0.0 -0.012709537558153 -0.025736965168917 -0.50309786834077 0.0 0.0 0.0 0.0 0.0 0.0 0.0 0.0 0.0 1.0301940193153 -1.6600953837533 9.8651691643134 0.0 0.0 0.0 0.0 0.0 0.0 0.0 0.0 0.0
1317379372030869960 0 1317379372030869960 imu_link 0.002765614898878867 0.005797267159165733 -0.7025494357513478 0.7116059537364617 0.0 0.0 0.0 0.0 0.0 0.0 0.0 0.0 0.0 -0.037636184998874 -0.018191287666711 -0.51256289355104 0.0 0.0 0.0 0.0 0.0 0.0 0.0 0.0 0.0 1.1757156415275 -1.7525292902479 9.8007163071825 0.0 0.0 0.0 0.0 0.0 0.0 0.0 0.0 0.0
1317379372140860080 0 1317379372140860080 imu_link 0.00036976092388439673 0.007375017031236325 -0.7224096028304673 0.6914259455205414 0.0 0.0 0.0 0.0 0.0 0.0 0.0 0.0 0.0 -0.050458588053865 -0.011988520358337 -0.51362456066545 0.0 0.0 0.0 0.0 0.0 0.0 0.0 0.0 0.0 1.3765325027841 -2.0392633289722 9.8979580417374 0.0 0.0 0.0 0.0 0.0 0.0 0.0 0.0 0.0
1317379372240838050 0 1317379372240838050 imu_link -0.0007265861511999111 0.008134169515691259 -0.739596886591839 0.6730005592141164 0.0 0.0 0.0 0.0 0.0 0.0 0.0 0.0 0.0 -0.028510398525768 -0.010533570297162 -0.50372988777076 0.0 0.0 0.0 0.0 0.0 0.0 0.0 0.0 0.0 1.3628274064932 -2.3318997006417 9.947696854492 0.0 0.0 0.0 0.0 0.0 0.0 0.0 0.0 0.0
1317379372340846061 0 1317379372340846061 imu_link -0.0006041279506200374 0.007496824296266371 -0.7556460104136247 0.6549370501054756 0.0 0.0 0.0 0.0 0.0 0.0 0.0 0.0 0.0 0.0025623445718384 -0.010766921360378 -0.48526422866479 0.0 0.0 0.0 0.0 0.0 0.0 0.0 0.0 0.0 1.3804870408638 -2.2239758068896 9.8270764429443 0.0 0.0 0.0 0.0 0.0 0.0 0.0 0.0 0.0
1317379372450902938 0 1317379372450902938 imu_link -0.000373179226030077 0.0067864165677487655 -0.7715123998943717 0.6361779798897957 0.0 0.0 0.0 0.0 0.0 0.0 0.0 0.0 0.0 0.010396538894848 -0.004833509087855 -0.44808414593781 0.0 0.0 0.0 0.0 0.0 0.0 0.0 0.0 0.0 1.5280640567691 -1.9294260093455 10.065160466377 0.0 0.0 0.0 0.0 0.0 0.0 0.0 0.0 0.0
1317379372550834894 0 1317379372550834894 imu_link 0.00021068060430216124 0.007503087099740187 -0.7843807345316617 0.6202342481621177 0.0 0.0 0.0 0.0 0.0 0.0 0.0 0.0 0.0 -0.0014739959564621 0.011090410784074 -0.41304620422424 0.0 0.0 0.0 0.0 0.0 0.0 0.0 0.0 0.0 1.5774113901694 -1.932653895569 9.7156321938462 0.0 0.0 0.0 0.0 0.0 0.0 0.0 0.0 0.0
1317379372660897016 0 1317379372660897016 imu_link 0.0008618882021244603 0.008189235005951215 -0.7970716556632371 0.6038285926626944 0.0 0.0 0.0 0.0 0.0 0.0 0.0 0.0 0.0 -0.0045178651056599 0.015200718419021 -0.38112294385284 0.0 0.0 0.0 0.0 0.0 0.0 0.0 0.0 0.0 1.6743110177989 -1.669392963228 9.9869345074052 0.0 0.0 0.0 0.0 0.0 0.0 0.0 0.0 0.0
1317379372760807037 0 1317379372760807037 imu_link 0.0011110466271026867 0.009117497472225655 -0.8076581270453396 0.5895794998410737 0.0 0.0 0.0 0.0 0.0 0.0 0.0 0.0 0.0 -0.01282036089266 0.01116545237799 -0.35615986615752 0.0 0.0 0.0 0.0 0.0 0.0 0.0 0.0 0.0 1.6896653925897 -1.779678862955 9.7872948679863 0.0 0.0 0.0 0.0 0.0 0.0 0.0 0.0 0.0
1317379372860837936 0 1317379372860837936 imu_link 0.0016596638836825642 0.009234244277826091 -0.8169345596814024 0.5766540552589254 0.0 0.0 0.0 0.0 0.0 0.0 0.0 0.0 0.0 0.0040767930696735 0.0071870858427627 -0.32179259136828 0.0 0.0 0.0 0.0 0.0 0.0 0.0 0.0 0.0 1.6905921987526 -1.9214897324789 9.7664358630441 0.0 0.0 0.0 0.0 0.0 0.0 0.0 0.0 0.0
1317379372970860004 0 1317379372970860004 imu_link 0.001992301031677073 0.009184555737656152 -0.8258859557468742 0.5637588693515814 0.0 0.0 0.0 0.0 0.0 0.0 0.0 0.0 0.0 -0.0023982398452074 0.0026078184703644 -0.28857735237557 0.0 0.0 0.0 0.0 0.0 0.0 0.0 0.0 0.0 1.7841486100851 -1.3245301681352 9.336740351047 0.0 0.0 0.0 0.0 0.0 0.0 0.0 0.0 0.0
1317379373070827960 0 1317379373070827960 imu_link 0.0003329255015510832 0.009604551275622817 -0.8330764542188314 0.5530743740055071 0.0 0.0 0.0 0.0 0.0 0.0 0.0 0.0 0.0 -0.021395218704761 -0.022698336264362 -0.26042793800812 0.0 0.0 0.0 0.0 0.0 0.0 0.0 0.0 0.0 1.7026527300981 -1.2864561158943 9.4155520000353 0.0 0.0 0.0 0.0 0.0 0.0 0.0 0.0 0.0
1317379373170840024 0 1317379373170840024 imu_link -0.001880513920534749 0.010377079287024941 -0.8391524873045827 0.5437939710436277 0.0 0.0 0.0 0.0 0.0 0.0 0.0 0.0 0.0 -0.036110624621945 -0.026355199311865 -0.22481778758055 0.0 0.0 0.0 0.0 0.0 0.0 0.0 0.0 0.0 1.7972256829926 -1.3728963309661 10.084983611839 0.0 0.0 0.0 0.0 0.0 0.0 0.0 0.0 0.0
1317379373280800104 0 1317379373280800104 imu_link -0.0026201041686345823 0.010405235979443716 -0.8448051501714494 0.534966470315806 0.0 0.0 0.0 0.0 0.0 0.0 0.0 0.0 0.0 -0.0051597972509873 -0.01551418570816 -0.19414139769145 0.0 0.0 0.0 0.0 0.0 0.0 0.0 0.0 0.0 1.7984430210925 -1.5675497275566 10.135879755436 0.0 0.0 0.0 0.0 0.0 0.0 0.0 0.0 0.0
1317379373380876064 0 1317379373380876064 imu_link -0.0019612254655224253 0.008792504217863699 -0.8492583000115342 0.5279007343485812 0.0 0.0 0.0 0.0 0.0 0.0 0.0 0.0 0.0 0.02699877478637 -0.0076744659151096 -0.17112852570556 0.0 0.0 0.0 0.0 0.0 0.0 0.0 0.0 0.0 1.8021989727181 -1.3635934537098 9.901276635517 0.0 0.0 0.0 0.0 0.0 0.0 0.0 0.0 0.0
1317379373490869045 0 1317379373490869045 imu_link -0.0013652506069007021 0.007549770727155413 -0.8536075901370772 0.5208600763286807 0.0 0.0 0.0 0.0 0.0 0.0 0.0 0.0 0.0 0.021405822788572 -0.003010469903944 -0.15419318435932 0.0 0.0 0.0 0.0 0.0 0.0 0.0 0.0 0.0 1.778301551789 -0.60849655668048 9.9550340617863 0.0 0.0 0.0 0.0 0.0 0.0 0.0 0.0 0.0
1317379373590982913 0 1317379373590982913 imu_link -0.0011997603097424758 0.008289068624208064 -0.8574171404357402 0.5145538836735573 0.0 0.0 0.0 0.0 0.0 0.0 0.0 0.0 0.0 -0.0040391278786917 0.0066176181337344 -0.15113535394967 0.0 0.0 0.0 0.0 0.0 0.0 0.0 0.0 0.0 1.7097738081098 -0.82244003068774 9.8364039223144 0.0 0.0 0.0 0.0 0.0 0.0 0.0 0.0 0.0
1317379373690797090 0 1317379373690797090 imu_link -0.0014150471062845346 0.00787383038727528 -0.8610225522277055 0.5085038495350919 0.0 0.0 0.0 0.0 0.0 0.0 0.0 0.0 0.0 0.0044403810920632 -0.0079549850003673 -0.14358825531079 0.0 0.0 0.0 0.0 0.0 0.0 0.0 0.0 0.0 1.5757688706773 -1.1506878034666 9.7709974744605 0.0 0.0 0.0 0.0 0.0 0.0 0.0 0.0 0.0
1317379373800838947 0 1317379373800838947 imu_link -0.0018147424562728386 0.006657422598863881 -0.864317715186803 0.5028988692057498 0.0 0.0 0.0 0.0 0.0 0.0 0.0 0.0 0.0 0.014011636612356 -0.016849635913419 -0.12046370661018 0.0 0.0 0.0 0.0 0.0 0.0 0.0 0.0 0.0 1.6367808966613 -0.99191767752734 9.6788580672958 0.0 0.0 0.0 0.0 0.0 0.0 0.0 0.0 0.0
1317379373901010990 0 1317379373901010990 imu_link -0.001041752167868316 0.0035068110680789846 -0.866681556592283 0.49884837024022727 0.0 0.0 0.0 0.0 0.0 0.0 0.0 0.0 0.0 0.061248649876927 -0.018022188189424 -0.098240485987135 0.0 0.0 0.0 0.0 0.0 0.0 0.0 0.0 0.0 1.5963243716126 -1.1164719580134 9.9475862951598 0.0 0.0 0.0 0.0 0.0 0.0 0.0 0.0 0.0
1317379374000843048 0 1317379374000843048 imu_link -7.872022091633661e-05 -0.0006220394101146644 -0.8682095241545066 0.4961973690352503 0.0 0.0 0.0 0.0 0.0 0.0 0.0 0.0 0.0 0.075253975012796 -0.023882629668023 -0.064550046925531 0.0 0.0 0.0 0.0 0.0 0.0 0.0 0.0 0.0 1.5160334191401 -0.83501249350193 10.240889655653 0.0 0.0 0.0 0.0 0.0 0.0 0.0 0.0 0.0
1317379374110791921 0 1317379374110791921 imu_link 0.0014528181747362737 -0.0029656923456783256 -0.8688391356946051 0.4950834780859823 0.0 0.0 0.0 0.0 0.0 0.0 0.0 0.0 0.0 0.04866051846795 0.00091366296940893 -0.026966212815892 0.0 0.0 0.0 0.0 0.0 0.0 0.0 0.0 0.0 1.6429412833557 0.06023798739439 10.187896163814 0.0 0.0 0.0 0.0 0.0 0.0 0.0 0.0 0.0
1317379374210798025 0 1317379374210798025 imu_link 0.002512326172962689 -0.0026059100434652495 -0.868815065036927 0.4951234999623084 0.0 0.0 0.0 0.0 0.0 0.0 0.0 0.0 0.0 0.012548735337927 0.014697845008545 -0.0030000309679633 0.0 0.0 0.0 0.0 0.0 0.0 0.0 0.0 0.0 1.4644405727732 0.12710687227687 9.4437038134607 0.0 0.0 0.0 0.0 0.0 0.0 0.0 0.0 0.0
1317379374310956954 0 1317379374310956954 imu_link 0.0037472428729963063 -0.004123591704089256 -0.8682181766510834 0.49615133970894104 0.0 0.0 0.0 0.0 0.0 0.0 0.0 0.0 0.0 0.036118750111499 0.0099557745744893 0.020880354875047 0.0 0.0 0.0 0.0 0.0 0.0 0.0 0.0 0.0 1.0661666834734 -0.036123321630374 10.051360741442 0.0 0.0 0.0 0.0 0.0 0.0 0.0 0.0 0.0
1317379374420958995 0 1317379374420958995 imu_link 0.005007536043926341 -0.00446159618216107 -0.8670006434041039 0.4982618820250514 0.0 0.0 0.0 0.0 0.0 0.0 0.0 0.0 0.0 0.019826639911786 0.014691238074228 0.041368445293865 0.0 0.0 0.0 0.0 0.0 0.0 0.0 0.0 0.0 0.77701062341784 0.58367605596481 9.6357954053423 0.0 0.0 0.0 0.0 0.0 0.0 0.0 0.0 0.0
1317379374520795106 0 1317379374520795106 imu_link 0.0042556901806322725 -0.003994270504083383 -0.8660218390085707 0.49997210848650325 0.0 0.0 0.0 0.0 0.0 0.0 0.0 0.0 0.0 -0.0085769420641863 -0.0062483315403456 0.040176512787303 0.0 0.0 0.0 0.0 0.0 0.0 0.0 0.0 0.0 0.51624617938218 0.72108610548796 9.3863563622068 0.0 0.0 0.0 0.0 0.0 0.0 0.0 0.0 0.0
1317379374630789995 0 1317379374630789995 imu_link 0.003391228329199597 -0.003956314633388548 -0.8649164817977005 0.5018887592481316 0.0 0.0 0.0 0.0 0.0 0.0 0.0 0.0 0.0 -0.0064759521620327 -0.013372978519317 0.041175400476693 0.0 0.0 0.0 0.0 0.0 0.0 0.0 0.0 0.0 0.3439545988123 -0.20524517921335 9.9729238550756 0.0 0.0 0.0 0.0 0.0 0.0 0.0 0.0 0.0
1317379374730947971 0 1317379374730947971 imu_link 0.004938902685485136 -0.005659487867835685 -0.8638276096861253 0.5037315139846745 0.0 0.0 0.0 0.0 0.0 0.0 0.0 0.0 0.0 0.039281135654348 0.0068640662626144 0.042342700383467 0.0 0.0 0.0 0.0 0.0 0.0 0.0 0.0 0.0 0.16427032919948 -0.081660502759016 10.481029374895 0.0 0.0 0.0 0.0 0.0 0.0 0.0 0.0 0.0
1317379374830769062 0 1317379374830769062 imu_link 0.007555125353144804 -0.007533209196691537 -0.8629202680397564 0.5052274555547155 0.0 0.0 0.0 0.0 0.0 0.0 0.0 0.0 0.0 0.048581188513627 0.018311555775598 0.035798224481611 0.0 0.0 0.0 0.0 0.0 0.0 0.0 0.0 0.0 0.065022697211463 0.29832563327992 9.8730619639609 0.0 0.0 0.0 0.0 0.0 0.0 0.0 0.0 0.0
1317379374941061019 0 1317379374941061019 imu_link 0.009968848963613422 -0.007689519107141028 -0.8618030557976392 0.5070867641381431 0.0 0.0 0.0 0.0 0.0 0.0 0.0 0.0 0.0 0.027806696578039 0.032853082132274 0.035045145640693 0.0 0.0 0.0 0.0 0.0 0.0 0.0 0.0 0.0 0.0092839568689738 0.35997756191971 9.6661630611106 0.0 0.0 0.0 0.0 0.0 0.0 0.0 0.0 0.0
1317379375040776968 0 1317379375040776968 imu_link 0.012475654560532434 -0.00802464532173412 -0.8605740791234394 0.5091092392125594 0.0 0.0 0.0 0.0 0.0 0.0 0.0 0.0 0.0 0.029956206327445 0.036069488782255 0.042845598458353 0.0 0.0 0.0 0.0 0.0 0.0 0.0 0.0 0.0 -0.13273066186626 0.23932787780672 9.5810332246764 0.0 0.0 0.0 0.0 0.0 0.0 0.0 0.0 0.0
1317379375150795936 0 1317379375150795936 imu_link 0.013985452528478192 -0.007743306930447268 -0.8589851566030681 0.511750866194633 0.0 0.0 0.0 0.0 0.0 0.0 0.0 0.0 0.0 0.013310540464108 0.027838988453468 0.052239267968731 0.0 0.0 0.0 0.0 0.0 0.0 0.0 0.0 0.0 -0.028387492783595 0.59458509316998 9.6296801308148 0.0 0.0 0.0 0.0 0.0 0.0 0.0 0.0 0.0
1317379375250751972 0 1317379375250751972 imu_link 0.014093906393152646 -0.0063306081135640225 -0.857886961833624 0.5136061194333336 0.0 0.0 0.0 0.0 0.0 0.0 0.0 0.0 0.0 -0.018403823448041 0.015331338884567 0.042143893713393 0.0 0.0 0.0 0.0 0.0 0.0 0.0 0.0 0.0 -0.047770673178749 0.79075532446444 9.0942154601691 0.0 0.0 0.0 0.0 0.0 0.0 0.0 0.0 0.0
1317379375350788116 0 1317379375350788116 imu_link 0.012781109986866787 -0.0036677101226204774 -0.8569467366911391 0.5152334243858481 0.0 0.0 0.0 0.0 0.0 0.0 0.0 0.0 0.0 -0.053511799903056 0.0085434788995106 0.039079921840779 0.0 0.0 0.0 0.0 0.0 0.0 0.0 0.0 0.0 0.16357388847679 0.50000899171333 9.6969251205785 0.0 0.0 0.0 0.0 0.0 0.0 0.0 0.0 0.0
1317379375460995912 0 1317379375460995912 imu_link 0.01259807871792636 6.018279035411352e-05 -0.8557678100112487 0.5172066706251958 0.0 0.0 0.0 0.0 0.0 0.0 0.0 0.0 0.0 -0.054881866486556 0.028724204525599 0.041646891064971 0.0 0.0 0.0 0.0 0.0 0.0 0.0 0.0 0.0 0.23620713921253 0.29574950724682 9.8962905374727 0.0 0.0 0.0 0.0 0.0 0.0 0.0 0.0 0.0
1317379375560781002 0 1317379375560781002 imu_link 0.01252276608849311 0.0017827372421684619 -0.8547062061473965 0.5189579013277884 0.0 0.0 0.0 0.0 0.0 0.0 0.0 0.0 0.0 -0.031958501250608 0.014951328058861 0.041919797841894 0.0 0.0 0.0 0.0 0.0 0.0 0.0 0.0 0.0 0.1971909586295 0.053852356562223 9.6569071166773 0.0 0.0 0.0 0.0 0.0 0.0 0.0 0.0 0.0
1317379375660842895 0 1317379375660842895 imu_link 0.011340101528505191 0.001000807219852175 -0.8536676676799039 0.5206936850396643 0.0 0.0 0.0 0.0 0.0 0.0 0.0 0.0 0.0 -0.0032831406579605 -0.024323604663895 0.039479072420511 0.0 0.0 0.0 0.0 0.0 0.0 0.0 0.0 0.0 0.1382861285029 0.19659501496209 9.5025777119631 0.0 0.0 0.0 0.0 0.0 0.0 0.0 0.0 0.0
1317379375770791053 0 1317379375770791053 imu_link 0.008130172325796613 -0.0017847675602579494 -0.8528814150994816 0.5220383191688276 0.0 0.0 0.0 0.0 0.0 0.0 0.0 0.0 0.0 0.0097140753854109 -0.072668778624144 0.030275187531086 0.0 0.0 0.0 0.0 0.0 0.0 0.0 0.0 0.0 0.27075567915583 0.27710341957137 9.2930323043242 0.0 0.0 0.0 0.0 0.0 0.0 0.0 0.0 0.0
1317379375870760917 0 1317379375870760917 imu_link 0.005054167292232575 -0.00292203875723548 -0.8523107565898249 0.5230031465333297 0.0 0.0 0.0 0.0 0.0 0.0 0.0 0.0 0.0 -0.01000299388155 -0.06021295118972 0.025535270814817 0.0 0.0 0.0 0.0 0.0 0.0 0.0 0.0 0.0 0.3691164485466 0.26568715377173 10.51109816543 0.0 0.0 0.0 0.0 0.0 0.0 0.0 0.0 0.0
1317379375980811119 0 1317379375980811119 imu_link 0.004860219714879478 -0.0023977092479032904 -0.8519783738410525 0.523548927763052 0.0 0.0 0.0 0.0 0.0 0.0 0.0 0.0 0.0 -0.0066111618246369 -0.0011957376124975 0.015524090214736 0.0 0.0 0.0 0.0 0.0 0.0 0.0 0.0 0.0 0.38631976490298 0.014614414889778 10.909416040775 0.0 0.0 0.0 0.0 0.0 0.0 0.0 0.0 0.0
1317379376080791950 0 1317379376080791950 imu_link 0.007339187753383657 -0.0021440373899402725 -0.8517040238049718 0.5239673608739492 0.0 0.0 0.0 0.0 0.0 0.0 0.0 0.0 0.0 0.017378035425049 0.035606396601852 0.012993714884246 0.0 0.0 0.0 0.0 0.0 0.0 0.0 0.0 0.0 0.23500861790441 -0.12840895807449 9.928693648334 0.0 0.0 0.0 0.0 0.0 0.0 0.0 0.0 0.0
1317379376180775880 0 1317379376180775880 imu_link 0.008037238953762713 -0.002575309513895167 -0.8515720853258297 0.5241695852152485 0.0 0.0 0.0 0.0 0.0 0.0 0.0 0.0 0.0 0.011003497240142 0.0092993291141071 0.0080909088711859 0.0 0.0 0.0 0.0 0.0 0.0 0.0 0.0 0.0 0.23110546493568 0.37174023537763 9.3551665763779 0.0 0.0 0.0 0.0 0.0 0.0 0.0 0.0 0.0
1317379376290898084 0 1317379376290898084 imu_link 0.006379662393947386 -0.0024885419149113627 -0.8515899726320905 0.5241637392832056 0.0 0.0 0.0 0.0 0.0 0.0 0.0 0.0 0.0 -0.016346919237665 -0.020525126224515 0.0014084672205917 0.0 0.0 0.0 0.0 0.0 0.0 0.0 0.0 0.0 0.42969174887673 0.39413739601943 9.448009472745 0.0 0.0 0.0 0.0 0.0 0.0 0.0 0.0 0.0
1317379376390793085 0 1317379376390793085 imu_link 0.0038593642427165037 -8.400674446680978e-05 -0.8516943867452985 0.5240245889622535 0.0 0.0 0.0 0.0 0.0 0.0 0.0 0.0 0.0 -0.057693751305896 -0.018171982392185 -0.00087668528457378 0.0 0.0 0.0 0.0 0.0 0.0 0.0 0.0 0.0 0.65937388117219 -0.0040100654080008 9.7127290224181 0.0 0.0 0.0 0.0 0.0 0.0 0.0 0.0 0.0
1317379376500844001 0 1317379376500844001 imu_link 0.003728575482036216 0.0009792063576027923 -0.8520368461111761 0.5234676224454614 0.0 0.0 0.0 0.0 0.0 0.0 0.0 0.0 0.0 -0.02085334096083 0.0099003381925732 -0.0091320524118745 0.0 0.0 0.0 0.0 0.0 0.0 0.0 0.0 0.0 0.66144098975334 -0.31170611385161 10.514597365621 0.0 0.0 0.0 0.0 0.0 0.0 0.0 0.0 0.0
1317379376600790977 0 1317379376600790977 imu_link 0.0042788952942425474 0.0011057862464304818 -0.8523738046909676 0.5229143002141768 0.0 0.0 0.0 0.0 0.0 0.0 0.0 0.0 0.0 -0.00033379129137031 0.0053090250454724 -0.010298040246075 0.0 0.0 0.0 0.0 0.0 0.0 0.0 0.0 0.0 0.54660680965019 -0.18078373843036 9.6185820305797 0.0 0.0 0.0 0.0 0.0 0.0 0.0 0.0 0.0
1317379376700767993 0 1317379376700767993 imu_link 0.00300232006358043 0.0005363605400249906 -0.8528015429961961 0.522226221722841 0.0 0.0 0.0 0.0 0.0 0.0 0.0 0.0 0.0 -0.0047063246839181 -0.02684745936718 -0.014170640901145 0.0 0.0 0.0 0.0 0.0 0.0 0.0 0.0 0.0 0.55949416581805 0.14751901448733 9.2119195698987 0.0 0.0 0.0 0.0 0.0 0.0 0.0 0.0 0.0
1317379376810890913 0 1317379376810890913 imu_link 0.0008826569407585883 -0.0008862668852548076 -0.8532764312737349 0.5214573494356872 0.0 0.0 0.0 0.0 0.0 0.0 0.0 0.0 0.0 0.0055339070356002 -0.037112924720175 -0.01471161592555 0.0 0.0 0.0 0.0 0.0 0.0 0.0 0.0 0.0 0.85258967537642 -0.33030372589786 9.9052763856251 0.0 0.0 0.0 0.0 0.0 0.0 0.0 0.0 0.0
1317379376910820960 0 1317379376910820960 imu_link 0.0001467222079087429 -0.0021681350083487603 -0.8535170575964733 0.5210603708353165 0.0 0.0 0.0 0.0 0.0 0.0 0.0 0.0 0.0 0.013689438523599 -0.025563003208449 -0.0088801315653381 0.0 0.0 0.0 0.0 0.0 0.0 0.0 0.0 0.0 0.85039366161738 -0.29271926703624 10.39637970945 0.0 0.0 0.0 0.0 0.0 0.0 0.0 0.0 0.0
1317379377010787963 0 1317379377010787963 imu_link 0.0003277544486045747 -0.003568596072016551 -0.8537898199003173 0.5206055139293858 0.0 0.0 0.0 0.0 0.0 0.0 0.0 0.0 0.0 0.022129345815421 -0.011960203759346 -0.0095464896348882 0.0 0.0 0.0 0.0 0.0 0.0 0.0 0.0 0.0 0.87521955024824 0.0045844083589957 10.51655505972 0.0 0.0 0.0 0.0 0.0 0.0 0.0 0.0 0.0
1317379377120713949 0 1317379377120713949 imu_link 9.22974492750593e-05 -0.003759914507099013 -0.8541297963591532 0.5200462916852224 0.0 0.0 0.0 0.0 0.0 0.0 0.0 0.0 0.0 0.007416871138086 -0.013179804258365 -0.0096298250569233 0.0 0.0 0.0 0.0 0.0 0.0 0.0 0.0 0.0 0.83895021884194 -0.063612539196355 9.002597211154 0.0 0.0 0.0 0.0 0.0 0.0 0.0 0.0 0.0
1317379377220796108 0 1317379377220796108 imu_link -0.00043199897289689245 -0.0037753774170539663 -0.8544522578576992 0.5195160237606979 0.0 0.0 0.0 0.0 0.0 0.0 0.0 0.0 0.0 -0.0066709564755549 -0.0024117808574802 -0.011411519079692 0.0 0.0 0.0 0.0 0.0 0.0 0.0 0.0 0.0 1.0561939762213 0.13613545775319 10.34304031312 0.0 0.0 0.0 0.0 0.0 0.0 0.0 0.0 0.0
1317379377330749988 0 1317379377330749988 imu_link 0.0010761754936807362 -0.0016384206907632585 -0.8548926888819575 0.5188011641468468 0.0 0.0 0.0 0.0 0.0 0.0 0.0 0.0 0.0 -0.01312905494722 0.037601269351932 -0.014068278052071 0.0 0.0 0.0 0.0 0.0 0.0 0.0 0.0 0.0 0.93424622701854 0.0066010834560604 10.342565371011 0.0 0.0 0.0 0.0 0.0 0.0 0.0 0.0 0.0
1317379377430815935 0 1317379377430815935 imu_link 0.002044654782899237 -0.0006489524835505438 -0.8552825943006135 0.5181573912759568 0.0 0.0 0.0 0.0 0.0 0.0 0.0 0.0 0.0 -0.0064914848969718 0.022612176385104 -0.013994696579751 0.0 0.0 0.0 0.0 0.0 0.0 0.0 0.0 0.0 0.70353385813861 -0.19895436982394 9.1898673013353 0.0 0.0 0.0 0.0 0.0 0.0 0.0 0.0 0.0
1317379377530735015 0 1317379377530735015 imu_link 0.000983870008472992 -0.0015231594434605812 -0.8556401275520034 0.5175680478042549 0.0 0.0 0.0 0.0 0.0 0.0 0.0 0.0 0.0 0.0022676599710844 -0.018051937218622 -0.012850275540394 0.0 0.0 0.0 0.0 0.0 0.0 0.0 0.0 0.0 0.74069889015779 -0.17721926935366 8.9868032443172 0.0 0.0 0.0 0.0 0.0 0.0 0.0 0.0 0.0
1317379377640706062 0 1317379377640706062 imu_link -0.0008091121703502038 -0.0033031684138063733 -0.8558348133758495 0.517238056053352 0.0 0.0 0.0 0.0 0.0 0.0 0.0 0.0 0.0 0.011050790402433 -0.03491372459304 -0.0070574205249915 0.0 0.0 0.0 0.0 0.0 0.0 0.0 0.0 0.0 0.84508890023254 -0.26889620645288 10.098896996367 0.0 0.0 0.0 0.0 0.0 0.0 0.0 0.0 0.0
1317379377740731000 0 1317379377740731000 imu_link -0.0005595148751709731 -0.004771047811961115 -0.8558462339441919 0.5172080315399442 0.0 0.0 0.0 0.0 0.0 0.0 0.0 0.0 0.0 0.025549974116646 -0.014520598461083 -0.0011310957411111 0.0 0.0 0.0 0.0 0.0 0.0 0.0 0.0 0.0 0.99671650650744 -0.16053974444798 10.557359473101 0.0 0.0 0.0 0.0 0.0 0.0 0.0 0.0 0.0
1317379377850750923 0 1317379377850750923 imu_link 0.002200507213433322 -0.005789746873232708 -0.855899119318252 0.5171057282117343 0.0 0.0 0.0 0.0 0.0 0.0 0.0 0.0 0.0 0.043664911640991 0.032189166499393 -0.0023591728974058 0.0 0.0 0.0 0.0 0.0 0.0 0.0 0.0 0.0 1.2423354392483 0.20177937229243 10.043141162321 0.0 0.0 0.0 0.0 0.0 0.0 0.0 0.0 0.0
1317379377950920104 0 1317379377950920104 imu_link 0.005092253037657419 -0.005112760059140175 -0.8560327347812753 0.5168712466625214 0.0 0.0 0.0 0.0 0.0 0.0 0.0 0.0 0.0 0.025765701189931 0.047146076751072 -0.0026370130753324 0.0 0.0 0.0 0.0 0.0 0.0 0.0 0.0 0.0 0.74050196536004 -0.0021805743628561 9.5195639475146 0.0 0.0 0.0 0.0 0.0 0.0 0.0 0.0 0.0
1317379378050726890 0 1317379378050726890 imu_link 0.007137081484432907 -0.00449688902427952 -0.8559379764503431 0.5170096909411657 0.0 0.0 0.0 0.0 0.0 0.0 0.0 0.0 0.0 0.0095537580516947 0.046292819040828 0.0038890790820048 0.0 0.0 0.0 0.0 0.0 0.0 0.0 0.0 0.0 0.74294002915152 0.24442613718571 9.5336364269519 0.0 0.0 0.0 0.0 0.0 0.0 0.0 0.0 0.0
1317379378160689115 0 1317379378160689115 imu_link 0.005966738946625819 -0.004758102659302522 -0.8555313727841638 0.5176947253618396 0.0 0.0 0.0 0.0 0.0 0.0 0.0 0.0 0.0 0.0045671362595033 -0.02336346404155 0.012507125438779 0.0 0.0 0.0 0.0 0.0 0.0 0.0 0.0 0.0 0.72770172444184 -0.11162730605352 8.9215898763346 0.0 0.0 0.0 0.0 0.0 0.0 0.0 0.0 0.0
1317379378260736942 0 1317379378260736942 imu_link 0.004678042458268344 -0.00551575310225975 -0.8552989200278016 0.5180844041136056 0.0 0.0 0.0 0.0 0.0 0.0 0.0 0.0 0.0 -0.0013091834464126 -0.028473406554029 0.0099335253109149 0.0 0.0 0.0 0.0 0.0 0.0 0.0 0.0 0.0 0.68621808013914 0.1729033090447 10.449962332413 0.0 0.0 0.0 0.0 0.0 0.0 0.0 0.0 0.0
1317379378370709896 0 1317379378370709896 imu_link 0.0026024398615618624 -0.0033258006680806553 -0.8552732187587709 0.5181600984548064 0.0 0.0 0.0 0.0 0.0 0.0 0.0 0.0 0.0 -0.053674181407479 -0.016297354066986 0.0011468499134547 0.0 0.0 0.0 0.0 0.0 0.0 0.0 0.0 0.0 0.82563565994426 0.56475687067116 9.6377705584653 0.0 0.0 0.0 0.0 0.0 0.0 0.0 0.0 0.0
1317379378470802068 0 1317379378470802068 imu_link 0.0013058379395983239 -0.002174554374213106 -0.8554658044578731 0.5178530906577589 0.0 0.0 0.0 0.0 0.0 0.0 0.0 0.0 0.0 -0.027010359433167 -0.012773938433227 -0.0068414227251676 0.0 0.0 0.0 0.0 0.0 0.0 0.0 0.0 0.0 0.90097445293116 -0.40826763178802 10.00996877639 0.0 0.0 0.0 0.0 0.0 0.0 0.0 0.0 0.0
1317379378570722103 0 1317379378570722103 imu_link 0.0032887822485881757 -0.0010495656216308739 -0.8555786220274396 0.517661379526187 0.0 0.0 0.0 0.0 0.0 0.0 0.0 0.0 0.0 -0.0068149064685687 0.039497811840693 -0.0028392753389244 0.0 0.0 0.0 0.0 0.0 0.0 0.0 0.0 0.0 0.88424244031294 -0.11528209663563 10.300855429028 0.0 0.0 0.0 0.0 0.0 0.0 0.0 0.0 0.0
1317379378680710077 0 1317379378680710077 imu_link 0.005275934413638345 0.0022089222097607638 -0.8558702544941039 0.5171589626516512 0.0 0.0 0.0 0.0 0.0 0.0 0.0 0.0 0.0 -0.037191346436678 0.050788262177154 -0.0097115660076302 0.0 0.0 0.0 0.0 0.0 0.0 0.0 0.0 0.0 0.63261875505332 -0.28974068570875 8.8960164954617 0.0 0.0 0.0 0.0 0.0 0.0 0.0 0.0 0.0
1317379378780735015 0 1317379378780735015 imu_link 0.0058195701345397175 0.0008555426360564258 -0.856017115482544 0.5169140147560252 0.0 0.0 0.0 0.0 0.0 0.0 0.0 0.0 0.0 0.011532714523518 -0.0014681692791249 -0.005974670130395 0.0 0.0 0.0 0.0 0.0 0.0 0.0 0.0 0.0 0.45068581129408 -0.51161812265699 9.3892162843716 0.0 0.0 0.0 0.0 0.0 0.0 0.0 0.0 0.0
1317379378880681037 0 1317379378880681037 imu_link 0.005139294661085568 -0.0012559739611114342 -0.8560696419774976 0.5168334144231723 0.0 0.0 0.0 0.0 0.0 0.0 0.0 0.0 0.0 0.026283785873967 -0.031877072086087 -0.001757310677769 0.0 0.0 0.0 0.0 0.0 0.0 0.0 0.0 0.0 0.66213977059018 -0.11219745703086 9.8315049020405 0.0 0.0 0.0 0.0 0.0 0.0 0.0 0.0 0.0
1317379378990793943 0 1317379378990793943 imu_link 0.00461805692208449 -0.0030194642604176453 -0.8564505118045671 0.5161996486007515 0.0 0.0 0.0 0.0 0.0 0.0 0.0 0.0 0.0 0.018803324389546 -0.022038511883657 -0.011381049197195 0.0 0.0 0.0 0.0 0.0 0.0 0.0 0.0 0.0 0.82887488434273 0.01824369874256 10.221485713116 0.0 0.0 0.0 0.0 0.0 0.0 0.0 0.0 0.0
1317379379090837001 0 1317379379090837001 imu_link 0.005630442927463301 -0.0025272010396805112 -0.8570402694504721 0.515212468703551 0.0 0.0 0.0 0.0 0.0 0.0 0.0 0.0 0.0 0.0037544048627059 0.016931280622134 -0.020832413703734 0.0 0.0 0.0 0.0 0.0 0.0 0.0 0.0 0.0 0.73489866313654 -0.18064944151422 10.30392820291 0.0 0.0 0.0 0.0 0.0 0.0 0.0 0.0 0.0
1317379379200712919 0 1317379379200712919 imu_link 0.008659369322306352 -0.0014789359833969457 -0.8578299364006584 0.5138585683689038 0.0 0.0 0.0 0.0 0.0 0.0 0.0 0.0 0.0 0.0093568396468411 0.050532991604607 -0.026508523980701 0.0 0.0 0.0 0.0 0.0 0.0 0.0 0.0 0.0 0.23702409933173 -0.21865772535505 9.9081374176136 0.0 0.0 0.0 0.0 0.0 0.0 0.0 0.0 0.0
1317379379300678014 0 1317379379300678014 imu_link 0.010388937872563937 -0.0008454439043881238 -0.8586401744139598 0.5124728344769593 0.0 0.0 0.0 0.0 0.0 0.0 0.0 0.0 0.0 0.010711065627191 0.032658162358699 -0.030112760539823 0.0 0.0 0.0 0.0 0.0 0.0 0.0 0.0 0.0 0.070658237692581 -0.47875540169972 8.6471442718001 0.0 0.0 0.0 0.0 0.0 0.0 0.0 0.0 0.0
1317379379400909900 0 1317379379400909900 imu_link 0.010828196532020013 -0.003271620178804257 -0.8595429066503859 0.5109383899143571 0.0 0.0 0.0 0.0 0.0 0.0 0.0 0.0 0.0 0.039986482587254 -0.0091653808491791 -0.033237933495093 0.0 0.0 0.0 0.0 0.0 0.0 0.0 0.0 0.0 0.05866076986377 -0.50065648486764 9.7972806874412 0.0 0.0 0.0 0.0 0.0 0.0 0.0 0.0 0.0
1317379379510699987 0 1317379379510699987 imu_link 0.012477628120409274 -0.004059338861858522 -0.8605471788687743 0.5092017120017241 0.0 0.0 0.0 0.0 0.0 0.0 0.0 0.0 0.0 0.026857106122953 0.015645386252217 -0.035346281233015 0.0 0.0 0.0 0.0 0.0 0.0 0.0 0.0 0.0 0.10226386727302 -0.34652433387668 10.153592917626 0.0 0.0 0.0 0.0 0.0 0.0 0.0 0.0 0.0
1317379379610691070 0 1317379379610691070 imu_link 0.014366974316808997 -0.005117468393380169 -0.8614561452507751 0.5076029071783357 0.0 0.0 0.0 0.0 0.0 0.0 0.0 0.0 0.0 0.035749074679685 0.020745732492322 -0.034859642539442 0.0 0.0 0.0 0.0 0.0 0.0 0.0 0.0 0.0 -0.086616192149292 -0.31467730249875 9.9807147428671 0.0 0.0 0.0 0.0 0.0 0.0 0.0 0.0 0.0
1317379379720710039 0 1317379379720710039 imu_link 0.015147107137527479 -0.006577639537302241 -0.8622683354688605 0.5061823954378917 0.0 0.0 0.0 0.0 0.0 0.0 0.0 0.0 0.0 0.031491089113999 -0.0054334600134866 -0.02938320380162 0.0 0.0 0.0 0.0 0.0 0.0 0.0 0.0 0.0 0.11366238680488 -0.43011710993428 9.3246974234151 0.0 0.0 0.0 0.0 0.0 0.0 0.0 0.0 0.0
1317379379820689916 0 1317379379820689916 imu_link 0.014893514121284718 -0.009186886272791127 -0.8628200176547326 0.5052082753597932 0.0 0.0 0.0 0.0 0.0 0.0 0.0 0.0 0.0 0.039656101455816 -0.030625687146474 -0.024189017371998 0.0 0.0 0.0 0.0 0.0 0.0 0.0 0.0 0.0 0.044834130189338 -0.24062848469428 9.6621846842762 0.0 0.0 0.0 0.0 0.0 0.0 0.0 0.0 0.0
1317379379920882940 0 1317379379920882940 imu_link 0.013565345995470261 -0.010946184112666995 -0.8633162363973983 0.5043622095419386 0.0 0.0 0.0 0.0 0.0 0.0 0.0 0.0 0.0 0.02381308667449 -0.042436462469417 -0.02082165484389 0.0 0.0 0.0 0.0 0.0 0.0 0.0 0.0 0.0 0.144928168436 -0.1286303366048 10.15080199114 0.0 0.0 0.0 0.0 0.0 0.0 0.0 0.0 0.0
1317379380030711889 0 1317379380030711889 imu_link 0.013444219957533636 -0.01319986569526886 -0.8637363186500489 0.5035916881166939 0.0 0.0 0.0 0.0 0.0 0.0 0.0 0.0 0.0 0.032620930782724 -0.019860778788402 -0.014186993870897 0.0 0.0 0.0 0.0 0.0 0.0 0.0 0.0 0.0 0.030892868177468 -0.12687899597992 10.271494835338 0.0 0.0 0.0 0.0 0.0 0.0 0.0 0.0 0.0
1317379380130681991 0 1317379380130681991 imu_link 0.013154684180991433 -0.012845114116202105 -0.8635985175337682 0.5038447755419501 0.0 0.0 0.0 0.0 0.0 0.0 0.0 0.0 0.0 -0.0032178376049094 -0.0045054223341792 0.0049202151335494 0.0 0.0 0.0 0.0 0.0 0.0 0.0 0.0 0.0 -0.083071270781945 0.090618868886103 9.9545405021636 0.0 0.0 0.0 0.0 0.0 0.0 0.0 0.0 0.0
1317379380240670919 0 1317379380240670919 imu_link 0.014732797094058767 -0.012299778704707255 -0.8629111667359534 0.504991067699218 0.0 0.0 0.0 0.0 0.0 0.0 0.0 0.0 0.0 0.0084395898403779 0.027087543802194 0.024409696462938 0.0 0.0 0.0 0.0 0.0 0.0 0.0 0.0 0.0 -0.025312904759386 0.085152236740161 9.7694384133828 0.0 0.0 0.0 0.0 0.0 0.0 0.0 0.0 0.0
1317379380340739011 0 1317379380340739011 imu_link 0.017169223317372268 -0.012955098870555275 -0.8617293941953977 0.5069120578202547 0.0 0.0 0.0 0.0 0.0 0.0 0.0 0.0 0.0 0.029473343598714 0.036114950833014 0.042301484317226 0.0 0.0 0.0 0.0 0.0 0.0 0.0 0.0 0.0 -0.07048752128297 0.5646470620251 9.6316835247208 0.0 0.0 0.0 0.0 0.0 0.0 0.0 0.0 0.0
1317379380440673112 0 1317379380440673112 imu_link 0.018446609380927723 -0.012218105579545169 -0.8604166007873896 0.5091107085770917 0.0 0.0 0.0 0.0 0.0 0.0 0.0 0.0 0.0 0.0056532431578774 0.034781779743358 0.050119361869542 0.0 0.0 0.0 0.0 0.0 0.0 0.0 0.0 0.0 0.12045835534412 0.72902870591708 9.550408464518 0.0 0.0 0.0 0.0 0.0 0.0 0.0 0.0 0.0
1317379380550682067 0 1317379380550682067 imu_link 0.020371213455422157 -0.011817745221420903 -0.8590526351355161 0.5113452108184461 0.0 0.0 0.0 0.0 0.0 0.0 0.0 0.0 0.0 0.012281343109011 0.0357684034337 0.049052351156661 0.0 0.0 0.0 0.0 0.0 0.0 0.0 0.0 0.0 -0.027484792385817 0.38976815015201 9.4212408635306 0.0 0.0 0.0 0.0 0.0 0.0 0.0 0.0 0.0
1317379380650661945 0 1317379380650661945 imu_link 0.02131570511669541 -0.011972238885997178 -0.8578185156121865 0.5133709190091894 0.0 0.0 0.0 0.0 0.0 0.0 0.0 0.0 0.0 0.0091403168247283 0.02181261870315 0.047671541194609 0.0 0.0 0.0 0.0 0.0 0.0 0.0 0.0 0.0 0.0027879707867011 0.63536118095403 9.5273223255348 0.0 0.0 0.0 0.0 0.0 0.0 0.0 0.0 0.0
1317379380750680923 0 1317379380750680923 imu_link 0.019834728480512633 -0.013263814869592463 -0.8568966245279297 0.5149357529186042 0.0 0.0 0.0 0.0 0.0 0.0 0.0 0.0 0.0 0.0063473044277174 -0.03154540185521 0.035943215329994 0.0 0.0 0.0 0.0 0.0 0.0 0.0 0.0 0.0 -0.042985915272528 0.70468049531023 9.2028055641124 0.0 0.0 0.0 0.0 0.0 0.0 0.0 0.0 0.0
1317379380860656023 0 1317379380860656023 imu_link 0.017203920408263247 -0.014313828169899052 -0.8563088651859919 0.5159789403159658 0.0 0.0 0.0 0.0 0.0 0.0 0.0 0.0 0.0 -0.00025562466532021 -0.042999446828053 0.021060560710763 0.0 0.0 0.0 0.0 0.0 0.0 0.0 0.0 0.0 0.25830185532654 0.41940400461118 10.085697073411 0.0 0.0 0.0 0.0 0.0 0.0 0.0 0.0 0.0
1317379380961066961 0 1317379380961066961 imu_link 0.01722475027172083 -0.014320566284964855 -0.8559946981468828 0.516499086256483 0.0 0.0 0.0 0.0 0.0 0.0 0.0 0.0 0.0 0.0018571565614515 -0.0011939660288641 0.014701514790968 0.0 0.0 0.0 0.0 0.0 0.0 0.0 0.0 0.0 0.26127101607531 0.13414833545378 10.616325671508 0.0 0.0 0.0 0.0 0.0 0.0 0.0 0.0 0.0
1317379381070621013 0 1317379381070621013 imu_link 0.018340423692876133 -0.013672336249757751 -0.8555977184754358 0.5171356110536851 0.0 0.0 0.0 0.0 0.0 0.0 0.0 0.0 0.0 -0.0024210844374176 0.016637864651454 0.014823246785643 0.0 0.0 0.0 0.0 0.0 0.0 0.0 0.0 0.0 0.022996351489291 0.099202276559621 9.6455203549526 0.0 0.0 0.0 0.0 0.0 0.0 0.0 0.0 0.0
1317379381170672893 0 1317379381170672893 imu_link 0.01752595258253998 -0.014609639923650582 -0.8551721773761628 0.5178416229399572 0.0 0.0 0.0 0.0 0.0 0.0 0.0 0.0 0.0 0.0047974126509109 -0.022515849872993 0.015460389492337 0.0 0.0 0.0 0.0 0.0 0.0 0.0 0.0 0.0 -0.17882673074661 0.10815974206227 9.1072951386357 0.0 0.0 0.0 0.0 0.0 0.0 0.0 0.0 0.0
1317379381270658969 0 1317379381270658969 imu_link 0.015031644772533407 -0.016380188615923632 -0.8546385383779218 0.5187472484703785 0.0 0.0 0.0 0.0 0.0 0.0 0.0 0.0 0.0 0.005512683932815 -0.049993659061133 0.019493831289354 0.0 0.0 0.0 0.0 0.0 0.0 0.0 0.0 0.0 0.04313840383316 0.28861103711997 10.076632309453 0.0 0.0 0.0 0.0 0.0 0.0 0.0 0.0 0.0
1317379381380690097 0 1317379381380690097 imu_link 0.013249345906391662 -0.016861938622436654 -0.8540464839956213 0.5197544930384567 0.0 0.0 0.0 0.0 0.0 0.0 0.0 0.0 0.0 -0.0064958851434754 -0.025335742743137 0.01970074223041 0.0 0.0 0.0 0.0 0.0 0.0 0.0 0.0 0.0 0.22540403110424 0.44603510620235 10.426188358703 0.0 0.0 0.0 0.0 0.0 0.0 0.0 0.0 0.0
1317379381480695962 0 1317379381480695962 imu_link 0.013461863243085345 -0.016748657438625893 -0.8534381015192091 0.5207510610525109 0.0 0.0 0.0 0.0 0.0 0.0 0.0 0.0 0.0 0.00056305639249915 0.0063332962847625 0.023175754126338 0.0 0.0 0.0 0.0 0.0 0.0 0.0 0.0 0.0 0.21005176471286 0.17163702975175 10.264573626738 0.0 0.0 0.0 0.0 0.0 0.0 0.0 0.0 0.0
1317379381580641984 0 1317379381580641984 imu_link 0.014230348131167537 -0.01549718170062752 -0.8525586565491388 0.5222078816855708 0.0 0.0 0.0 0.0 0.0 0.0 0.0 0.0 0.0 -0.016415201826418 0.023381072690344 0.033741957928813 0.0 0.0 0.0 0.0 0.0 0.0 0.0 0.0 0.0 0.2087049366917 0.40027097244041 9.8646248266287 0.0 0.0 0.0 0.0 0.0 0.0 0.0 0.0 0.0
1317379381690773963 0 1317379381690773963 imu_link 0.016063883225265217 -0.013990628400525536 -0.8512919035258337 0.5242597724068154 0.0 0.0 0.0 0.0 0.0 0.0 0.0 0.0 0.0 -0.0069709129734465 0.039277257042204 0.043410860515866 0.0 0.0 0.0 0.0 0.0 0.0 0.0 0.0 0.0 0.17583243982232 0.31944026883569 9.5074447710933 0.0 0.0 0.0 0.0 0.0 0.0 0.0 0.0 0.0
1317379381790815114 0 1317379381790815114 imu_link 0.016644366454985432 -0.012927481369679668 -0.8500411932986994 0.5262944185397294 0.0 0.0 0.0 0.0 0.0 0.0 0.0 0.0 0.0 -0.016561375960962 0.019852922345194 0.045852063562261 0.0 0.0 0.0 0.0 0.0 0.0 0.0 0.0 0.0 0.0089411271741119 0.50031973212639 9.4052793034964 0.0 0.0 0.0 0.0 0.0 0.0 0.0 0.0 0.0
1317379381900959014 0 1317379381900959014 imu_link 0.014099546033204862 -0.012052292664274367 -0.8491131348156592 0.5278852425733421 0.0 0.0 0.0 0.0 0.0 0.0 0.0 0.0 0.0 -0.032727229653366 -0.032131734154682 0.031670731027568 0.0 0.0 0.0 0.0 0.0 0.0 0.0 0.0 0.0 -0.075399834669862 0.71184433971998 9.3912243679387 0.0 0.0 0.0 0.0 0.0 0.0 0.0 0.0 0.0
1317379382000680923 0 1317379382000680923 imu_link 0.009272798378828122 -0.013013218085003678 -0.8486798939333267 0.5286654036331631 0.0 0.0 0.0 0.0 0.0 0.0 0.0 0.0 0.0 -0.036769010796115 -0.082185735475201 0.017679809423527 0.0 0.0 0.0 0.0 0.0 0.0 0.0 0.0 0.0 0.053575421593059 0.25060411436714 9.7866440276252 0.0 0.0 0.0 0.0 0.0 0.0 0.0 0.0 0.0
1317379382100655078 0 1317379382100655078 imu_link 0.0041716501513702695 -0.013158134215107108 -0.8484302103228374 0.5291272427786509 0.0 0.0 0.0 0.0 0.0 0.0 0.0 0.0 0.0 -0.05200722478683 -0.080884119779946 0.010109337923938 0.0 0.0 0.0 0.0 0.0 0.0 0.0 0.0 0.0 0.25929545490374 0.0013520366646095 10.793699467169 0.0 0.0 0.0 0.0 0.0 0.0 0.0 0.0 0.0
1317379382210664987 0 1317379382210664987 imu_link 0.0038631940266668197 -0.012725870323163984 -0.8482919743836964 0.5293617422449799 0.0 0.0 0.0 0.0 0.0 0.0 0.0 0.0 0.0 -0.0098254607813524 -0.0025201676012417 0.0056918268682155 0.0 0.0 0.0 0.0 0.0 0.0 0.0 0.0 0.0 0.25741396815432 -0.35807548063868 11.283868652487 0.0 0.0 0.0 0.0 0.0 0.0 0.0 0.0 0.0
1317379382310781002 0 1317379382310781002 imu_link 0.006545359312156279 -0.010728308455750823 -0.8481222412870723 0.5296515132644731 0.0 0.0 0.0 0.0 0.0 0.0 0.0 0.0 0.0 -0.0078070998854421 0.055930577879833 0.0056071084016821 0.0 0.0 0.0 0.0 0.0 0.0 0.0 0.0 0.0 -0.0090650705709962 0.15800650628318 9.7523685918694 0.0 0.0 0.0 0.0 0.0 0.0 0.0 0.0 0.0
1317379382410839080 0 1317379382410839080 imu_link 0.009238891029227564 -0.009437565476152788 -0.8484198332920366 0.5291591081396464 0.0 0.0 0.0 0.0 0.0 0.0 0.0 0.0 0.0 0.0067347178775474 0.059640186928459 -0.0099209251672737 0.0 0.0 0.0 0.0 0.0 0.0 0.0 0.0 0.0 -0.078759607485667 -0.23196604535433 8.8481930136353 0.0 0.0 0.0 0.0 0.0 0.0 0.0 0.0 0.0
1317379382520652055 0 1317379382520652055 imu_link 0.011335675892468032 -0.007579912084191927 -0.8490097849557342 0.5282011287703527 0.0 0.0 0.0 0.0 0.0 0.0 0.0 0.0 0.0 -0.015041658695611 0.054864075689458 -0.018027597380719 0.0 0.0 0.0 0.0 0.0 0.0 0.0 0.0 0.0 -0.15176766478245 0.056784496610741 9.8252612501703 0.0 0.0 0.0 0.0 0.0 0.0 0.0 0.0 0.0
1317379382620649099 0 1317379382620649099 imu_link 0.013435412330672122 -0.005368679227049436 -0.8495717401177301 0.5272746204514247 0.0 0.0 0.0 0.0 0.0 0.0 0.0 0.0 0.0 -0.013513873850095 0.057237182198162 -0.021105945291568 0.0 0.0 0.0 0.0 0.0 0.0 0.0 0.0 0.0 -0.28873569547701 -0.26313940733175 9.1241284487008 0.0 0.0 0.0 0.0 0.0 0.0 0.0 0.0 0.0
1317379382730635881 0 1317379382730635881 imu_link 0.013389298252985331 -0.0062339701116110955 -0.8501448925237712 0.5263416438252685 0.0 0.0 0.0 0.0 0.0 0.0 0.0 0.0 0.0 0.0054368831303106 -0.0009354777693771 -0.01930899423137 0.0 0.0 0.0 0.0 0.0 0.0 0.0 0.0 0.0 -0.34588451034693 -0.12524264290045 9.3030577526353 0.0 0.0 0.0 0.0 0.0 0.0 0.0 0.0 0.0
1317379382830638885 0 1317379382830638885 imu_link 0.012903297972686328 -0.006108536597154692 -0.8506837268482782 0.5254839555662888 0.0 0.0 0.0 0.0 0.0 0.0 0.0 0.0 0.0 -0.001320933665015 -0.0028216655036848 -0.021001573734371 0.0 0.0 0.0 0.0 0.0 0.0 0.0 0.0 0.0 -0.080548860950215 -0.10380916212231 9.9770786901017 0.0 0.0 0.0 0.0 0.0 0.0 0.0 0.0 0.0
1317379382930735111 0 1317379382930735111 imu_link 0.013848281258825538 -0.0060561135594006145 -0.8511830439257475 0.5246512883125621 0.0 0.0 0.0 0.0 0.0 0.0 0.0 0.0 0.0 0.0064729470054553 0.013651508095225 -0.0180104839796 0.0 0.0 0.0 0.0 0.0 0.0 0.0 0.0 0.0 -0.31276975687446 -0.34188693407653 9.953534551246 0.0 0.0 0.0 0.0 0.0 0.0 0.0 0.0 0.0
1317379383040630102 0 1317379383040630102 imu_link 0.013601667999303034 -0.006534585029619278 -0.8514933300135707 0.5241482641090475 0.0 0.0 0.0 0.0 0.0 0.0 0.0 0.0 0.0 0.0052927767608185 -0.0098832542553938 -0.013163324977252 0.0 0.0 0.0 0.0 0.0 0.0 0.0 0.0 0.0 -0.49399174462908 -0.12544626678008 9.5051663977453 0.0 0.0 0.0 0.0 0.0 0.0 0.0 0.0 0.0
1317379383140636920 0 1317379383140636920 imu_link 0.010401792526622551 -0.009066840400893074 -0.8516559733081464 0.5239195532197019 0.0 0.0 0.0 0.0 0.0 0.0 0.0 0.0 0.0 0.012492827089651 -0.075216874884276 -0.0074619530856265 0.0 0.0 0.0 0.0 0.0 0.0 0.0 0.0 0.0 -0.45663015116582 -0.060063971632954 9.2248555742032 0.0 0.0 0.0 0.0 0.0 0.0 0.0 0.0 0.0
1317379383250627994 0 1317379383250627994 imu_link 0.005821158232899828 -0.010291848169272857 -0.8518764467108928 0.5236093119085179 0.0 0.0 0.0 0.0 0.0 0.0 0.0 0.0 0.0 -0.018385208010348 -0.072082044086247 -0.0080967087714166 0.0 0.0 0.0 0.0 0.0 0.0 0.0 0.0 0.0 -0.17304636995732 0.12704498726771 10.697950390224 0.0 0.0 0.0 0.0 0.0 0.0 0.0 0.0 0.0
1317379383350615024 0 1317379383350615024 imu_link 0.004832356229448472 -0.009380882000652895 -0.85217997224511 0.5231423728685004 0.0 0.0 0.0 0.0 0.0 0.0 0.0 0.0 0.0 -0.024470745202472 -0.012009067185691 -0.01226668408332 0.0 0.0 0.0 0.0 0.0 0.0 0.0 0.0 0.0 -0.1910059208944 -0.060274730377164 11.138057075303 0.0 0.0 0.0 0.0 0.0 0.0 0.0 0.0 0.0
1317379383450642108 0 1317379383450642108 imu_link 0.006188595755603526 -0.005747133836104404 -0.85282149689843 0.52213424151569 0.0 0.0 0.0 0.0 0.0 0.0 0.0 0.0 0.0 -0.050778778734799 0.051271059989138 -0.02241430899332 0.0 0.0 0.0 0.0 0.0 0.0 0.0 0.0 0.0 -0.14262436165492 0.1764348938283 10.074758263178 0.0 0.0 0.0 0.0 0.0 0.0 0.0 0.0 0.0
1317379383560627937 0 1317379383560627937 imu_link 0.007719383734287946 -0.0009702777807112351 -0.8535971413495725 0.5208755993091143 0.0 0.0 0.0 0.0 0.0 0.0 0.0 0.0 0.0 -0.056138487282428 0.06223097703892 -0.025482742532132 0.0 0.0 0.0 0.0 0.0 0.0 0.0 0.0 0.0 -0.1902133363187 -0.094688692965159 8.918387753368 0.0 0.0 0.0 0.0 0.0 0.0 0.0 0.0 0.0
1317379383660614013 0 1317379383660614013 imu_link 0.010394824806008441 0.0022485129125568073 -0.8541562350088944 0.519907701426287 0.0 0.0 0.0 0.0 0.0 0.0 0.0 0.0 0.0 -0.012479424745094 0.076439699140612 -0.022609865119399 0.0 0.0 0.0 0.0 0.0 0.0 0.0 0.0 0.0 -0.23614022031163 -0.58951728975198 9.7903951214143 0.0 0.0 0.0 0.0 0.0 0.0 0.0 0.0 0.0
1317379383760588884 0 1317379383760588884 imu_link 0.014186677274991587 0.002827913906747739 -0.8546485060608524 0.5190054644979998 0.0 0.0 0.0 0.0 0.0 0.0 0.0 0.0 0.0 0.024359689833077 0.064620504412244 -0.019624337327083 0.0 0.0 0.0 0.0 0.0 0.0 0.0 0.0 0.0 -0.45631021964694 -0.49588694085481 8.8335074122424 0.0 0.0 0.0 0.0 0.0 0.0 0.0 0.0 0.0
1317379383870599985 0 1317379383870599985 imu_link 0.014318619324559386 0.0030892188060732398 -0.8551945584439088 0.5181000878939654 0.0 0.0 0.0 0.0 0.0 0.0 0.0 0.0 0.0 -0.0016126184946149 0.0052912532964308 -0.01985378963647 0.0 0.0 0.0 0.0 0.0 0.0 0.0 0.0 0.0 -0.72223090001601 0.18337728407543 9.2515389611469 0.0 0.0 0.0 0.0 0.0 0.0 0.0 0.0 0.0
1317379383970655918 0 1317379383970655918 imu_link 0.012488827101629156 0.0004329926123387432 -0.8555257646148977 0.5176094162543007 0.0 0.0 0.0 0.0 0.0 0.0 0.0 0.0 0.0 0.028115774564772 -0.054692811075837 -0.012713514424873 0.0 0.0 0.0 0.0 0.0 0.0 0.0 0.0 0.0 -0.93108044773092 -0.40655529545968 9.2847512316121 0.0 0.0 0.0 0.0 0.0 0.0 0.0 0.0 0.0
1317379384080610990 0 1317379384080610990 imu_link 0.008194637954908539 -0.007739117360811396 -0.8556837267210462 0.5173763753748766 0.0 0.0 0.0 0.0 0.0 0.0 0.0 0.0 0.0 0.081620663969973 -0.13491159912604 -0.0079067312574083 0.0 0.0 0.0 0.0 0.0 0.0 0.0 0.0 0.0 -0.37771235636303 0.01945849390479 9.8491375023803 0.0 0.0 0.0 0.0 0.0 0.0 0.0 0.0 0.0
1317379384180660009 0 1317379384180660009 imu_link 0.004946452856481396 -0.012320307501029058 -0.8559622638102087 0.516867822136493 0.0 0.0 0.0 0.0 0.0 0.0 0.0 0.0 0.0 0.047339597294624 -0.099295753923925 -0.011456831346178 0.0 0.0 0.0 0.0 0.0 0.0 0.0 0.0 0.0 -0.20310140812142 0.005139715653959 11.019258685785 0.0 0.0 0.0 0.0 0.0 0.0 0.0 0.0 0.0
1317379384280575037 0 1317379384280575037 imu_link 0.005803731540412244 -0.012037077126878454 -0.8561089748530731 0.5166225398203881 0.0 0.0 0.0 0.0 0.0 0.0 0.0 0.0 0.0 0.01182378681292 0.014322232549467 -0.0045079870006492 0.0 0.0 0.0 0.0 0.0 0.0 0.0 0.0 0.0 -0.12896416918767 0.11911781915796 11.46560626286 0.0 0.0 0.0 0.0 0.0 0.0 0.0 0.0 0.0
1317379384390772104 0 1317379384390772104 imu_link 0.011393640990428194 -0.00933302353170189 -0.8560913141026132 0.5166146934948703 0.0 0.0 0.0 0.0 0.0 0.0 0.0 0.0 0.0 0.011649728425934 0.10085386101059 0.0013648507432354 0.0 0.0 0.0 0.0 0.0 0.0 0.0 0.0 0.0 -0.39450614756605 -0.10453980985731 9.3071025404105 0.0 0.0 0.0 0.0 0.0 0.0 0.0 0.0 0.0
1317379384490633964 0 1317379384490633964 imu_link 0.015609575668494836 -0.0072545985914405945 -0.855963211604044 0.5167501256189658 0.0 0.0 0.0 0.0 0.0 0.0 0.0 0.0 0.0 0.0024722870248599 0.096229426555661 0.0047182870078242 0.0 0.0 0.0 0.0 0.0 0.0 0.0 0.0 0.0 -0.58966501104137 0.26154570365743 8.8349396921877 0.0 0.0 0.0 0.0 0.0 0.0 0.0 0.0 0.0
1317379384590583086 0 1317379384590583086 imu_link 0.01771086335678909 -0.005420928871669641 -0.8559787190430378 0.5166791764671433 0.0 0.0 0.0 0.0 0.0 0.0 0.0 0.0 0.0 -0.010091773071388 0.063571022925956 0.00070854078790085 0.0 0.0 0.0 0.0 0.0 0.0 0.0 0.0 0.0 -0.49856616331345 0.31309872078258 8.8219823015231 0.0 0.0 0.0 0.0 0.0 0.0 0.0 0.0 0.0
1317379384700607061 0 1317379384700607061 imu_link 0.019046475985328853 -0.002975523532200877 -0.8559280016166733 0.5167355552511729 0.0 0.0 0.0 0.0 0.0 0.0 0.0 0.0 0.0 -0.018334810991516 0.047060607181236 0.0013483357685885 0.0 0.0 0.0 0.0 0.0 0.0 0.0 0.0 0.0 -0.3722462796622 0.0098262109083051 9.6952684547227 0.0 0.0 0.0 0.0 0.0 0.0 0.0 0.0 0.0
1317379384800617933 0 1317379384800617933 imu_link 0.019928544234189546 -0.0006740223906803091 -0.855916780405012 0.516729004256236 0.0 0.0 0.0 0.0 0.0 0.0 0.0 0.0 0.0 -0.027573478714543 0.036644148602299 0.0024265186049944 0.0 0.0 0.0 0.0 0.0 0.0 0.0 0.0 0.0 -0.44433682602222 -0.091739068903578 9.7096822205847 0.0 0.0 0.0 0.0 0.0 0.0 0.0 0.0 0.0
1317379384910819053 0 1317379384910819053 imu_link 0.01879811811618124 -0.00027560933152277235 -0.8559477917313575 0.5167203621157183 0.0 0.0 0.0 0.0 0.0 0.0 0.0 0.0 0.0 -0.017593718356242 -0.020789973417744 0.0009221226671726 0.0 0.0 0.0 0.0 0.0 0.0 0.0 0.0 0.0 -0.65462567204472 -0.082793966103257 9.0849891039401 0.0 0.0 0.0 0.0 0.0 0.0 0.0 0.0 0.0
1317379385010656118 0 1317379385010656118 imu_link 0.01513498280932896 -0.0011768134107954164 -0.8559602746293256 0.5168186874156614 0.0 0.0 0.0 0.0 0.0 0.0 0.0 0.0 0.0 -0.021130809736245 -0.064863221831427 0.0021821693844998 0.0 0.0 0.0 0.0 0.0 0.0 0.0 0.0 0.0 -0.32322445045384 0.08472092261623 9.7784395199364 0.0 0.0 0.0 0.0 0.0 0.0 0.0 0.0 0.0
1317379385110580921 0 1317379385110580921 imu_link 0.012522881237264999 -0.0024968002032793903 -0.8560147765706596 0.5167936200524788 0.0 0.0 0.0 0.0 0.0 0.0 0.0 0.0 0.0 -0.0039377210611021 -0.059990355153929 -0.00011056715573669 0.0 0.0 0.0 0.0 0.0 0.0 0.0 0.0 0.0 -0.40331128533899 -0.14159795600086 10.458081901149 0.0 0.0 0.0 0.0 0.0 0.0 0.0 0.0 0.0
1317379385220628976 0 1317379385220628976 imu_link 0.010528900081829301 -0.00401571375146153 -0.8559751243950139 0.5168941890978014 0.0 0.0 0.0 0.0 0.0 0.0 0.0 0.0 0.0 0.0039378644275364 -0.045151433438363 0.0023511042415422 0.0 0.0 0.0 0.0 0.0 0.0 0.0 0.0 0.0 -0.37581310100961 0.01127226346777 10.72183935935 0.0 0.0 0.0 0.0 0.0 0.0 0.0 0.0 0.0
1317379385320566892 0 1317379385320566892 imu_link 0.009047891659638667 -0.00556491123086641 -0.8560134136526981 0.5168444669977257 0.0 0.0 0.0 0.0 0.0 0.0 0.0 0.0 0.0 0.012557531282266 -0.047174380778735 -0.00056279985383121 0.0 0.0 0.0 0.0 0.0 0.0 0.0 0.0 0.0 -0.65733113691213 -0.082245532135811 9.7703530592798 0.0 0.0 0.0 0.0 0.0 0.0 0.0 0.0 0.0
1317379385430731058 0 1317379385430731058 imu_link 0.007086054193325014 -0.007160493674015446 -0.8559434105142044 0.5169713659030118 0.0 0.0 0.0 0.0 0.0 0.0 0.0 0.0 0.0 0.008331791011825 -0.040225516038538 0.0029823029054067 0.0 0.0 0.0 0.0 0.0 0.0 0.0 0.0 0.0 -0.60675387130716 -0.001291780192499 10.642092799655 0.0 0.0 0.0 0.0 0.0 0.0 0.0 0.0 0.0
1317379385530602931 0 1317379385530602931 imu_link 0.007941444697383419 -0.007243786107924205 -0.8559577218307864 0.5169340765099463 0.0 0.0 0.0 0.0 0.0 0.0 0.0 0.0 0.0 0.012007565351308 0.0088674414092294 6.3487285135652e-05 0.0 0.0 0.0 0.0 0.0 0.0 0.0 0.0 0.0 -0.67201568101944 -0.055008422059372 10.103652712793 0.0 0.0 0.0 0.0 0.0 0.0 0.0 0.0 0.0
1317379385630572080 0 1317379385630572080 imu_link 0.010117625051138947 -0.005692046638554991 -0.855953786531802 0.5169219956533669 0.0 0.0 0.0 0.0 0.0 0.0 0.0 0.0 0.0 -0.0064498868046454 0.052847368626491 0.0003031377192126 0.0 0.0 0.0 0.0 0.0 0.0 0.0 0.0 0.0 -0.72622712415795 0.28103425397908 10.315975444693 0.0 0.0 0.0 0.0 0.0 0.0 0.0 0.0 0.0
1317379385740643024 0 1317379385740643024 imu_link 0.014134503236821378 -0.0019709389023514845 -0.8560573145119034 0.5166838544881769 0.0 0.0 0.0 0.0 0.0 0.0 0.0 0.0 0.0 -0.013611586190522 0.087339008855529 -0.003571219343318 0.0 0.0 0.0 0.0 0.0 0.0 0.0 0.0 0.0 -1.1179088829178 0.19419762153177 9.2645623317222 0.0 0.0 0.0 0.0 0.0 0.0 0.0 0.0 0.0
1317379385840578079 0 1317379385840578079 imu_link 0.01624795377886108 0.002410672380335245 -0.856310062540259 0.5162008034175969 0.0 0.0 0.0 0.0 0.0 0.0 0.0 0.0 0.0 -0.045230619157132 0.080837574897109 -0.0084218751619608 0.0 0.0 0.0 0.0 0.0 0.0 0.0 0.0 0.0 -1.4025097488107 0.10914871801333 8.8948010348985 0.0 0.0 0.0 0.0 0.0 0.0 0.0 0.0 0.0
1317379385950639963 0 1317379385950639963 imu_link 0.016325531814972392 0.005425480553693761 -0.8569430549297474 0.5151239091513726 0.0 0.0 0.0 0.0 0.0 0.0 0.0 0.0 0.0 -0.043133265816931 0.031404614235039 -0.019868697006822 0.0 0.0 0.0 0.0 0.0 0.0 0.0 0.0 0.0 -1.5724412735455 -0.070412932212816 9.0042294965083 0.0 0.0 0.0 0.0 0.0 0.0 0.0 0.0 0.0
1317379386050561904 0 1317379386050561904 imu_link 0.014219680307239035 0.006841161553248069 -0.8575090319872722 0.5142268558338949 0.0 0.0 0.0 0.0 0.0 0.0 0.0 0.0 0.0 -0.045191915374108 -0.016784226607234 -0.017263454400526 0.0 0.0 0.0 0.0 0.0 0.0 0.0 0.0 0.0 -1.7226260802653 -0.28833578451841 9.2453742315652 0.0 0.0 0.0 0.0 0.0 0.0 0.0 0.0 0.0
1317379386150540113 0 1317379386150540113 imu_link 0.010548524291553242 0.006403302302899058 -0.8579428073788504 0.5135969875513146 0.0 0.0 0.0 0.0 0.0 0.0 0.0 0.0 0.0 -0.028946852963086 -0.055259712681955 -0.014268475900974 0.0 0.0 0.0 0.0 0.0 0.0 0.0 0.0 0.0 -1.4949750670039 -0.14510498078315 9.7760189532302 0.0 0.0 0.0 0.0 0.0 0.0 0.0 0.0 0.0
1317379386260556936 0 1317379386260556936 imu_link 0.00742665259904705 0.0037616676912305314 -0.8581092432064622 0.5133996702482253 0.0 0.0 0.0 0.0 0.0 0.0 0.0 0.0 0.0 0.015735982212791 -0.069754559348897 -0.004520271432216 0.0 0.0 0.0 0.0 0.0 0.0 0.0 0.0 0.0 -1.5710179132401 -0.47611231061842 10.385095766602 0.0 0.0 0.0 0.0 0.0 0.0 0.0 0.0 0.0
1317379386360565900 0 1317379386360565900 imu_link 0.006169457137293434 0.0005705126916159598 -0.8578978706258711 0.513782887890883 0.0 0.0 0.0 0.0 0.0 0.0 0.0 0.0 0.0 0.036955994786673 -0.054996392376336 0.008363500921325 0.0 0.0 0.0 0.0 0.0 0.0 0.0 0.0 0.0 -1.6655793848187 -0.041867184506513 10.756127803559 0.0 0.0 0.0 0.0 0.0 0.0 0.0 0.0 0.0
1317379386460809946 0 1317379386460809946 imu_link 0.006384404173440135 -0.001275007225835721 -0.8572316979922151 0.5148897257639815 0.0 0.0 0.0 0.0 0.0 0.0 0.0 0.0 0.0 0.035182998142842 -0.017603507267402 0.024452586589671 0.0 0.0 0.0 0.0 0.0 0.0 0.0 0.0 0.0 -1.8442621107324 0.25250589229508 10.10633093649 0.0 0.0 0.0 0.0 0.0 0.0 0.0 0.0 0.0
1317379386570558071 0 1317379386570558071 imu_link 0.007485893209464619 -0.003116938095635677 -0.8560146448022391 0.5168879704383348 0.0 0.0 0.0 0.0 0.0 0.0 0.0 0.0 0.0 0.040609423304037 0.003368573684061 0.040815767689582 0.0 0.0 0.0 0.0 0.0 0.0 0.0 0.0 0.0 -1.9047358676263 0.16275733005894 10.102494690991 0.0 0.0 0.0 0.0 0.0 0.0 0.0 0.0 0.0
1317379386670564889 0 1317379386670564889 imu_link 0.010196368604402326 -0.003402350090580318 -0.8547504377861587 0.5189278824514195 0.0 0.0 0.0 0.0 0.0 0.0 0.0 0.0 0.0 0.028758980649747 0.03890132697331 0.046402154851543 0.0 0.0 0.0 0.0 0.0 0.0 0.0 0.0 0.0 -1.9990481561345 0.40479969473452 10.424367474653 0.0 0.0 0.0 0.0 0.0 0.0 0.0 0.0 0.0
1317379386780579090 0 1317379386780579090 imu_link 0.012821044558318437 -0.002352516851648301 -0.8535972906123059 0.5207703447204219 0.0 0.0 0.0 0.0 0.0 0.0 0.0 0.0 0.0 0.011937064420666 0.041990524143525 0.040000412022362 0.0 0.0 0.0 0.0 0.0 0.0 0.0 0.0 0.0 -2.3437139099069 0.44334588020163 9.389314737952 0.0 0.0 0.0 0.0 0.0 0.0 0.0 0.0 0.0
1317379386880541086 0 1317379386880541086 imu_link 0.01299146837524748 -0.0026116597366272094 -0.8525237366535884 0.5225205062244715 0.0 0.0 0.0 0.0 0.0 0.0 0.0 0.0 0.0 0.0064484393978516 0.0047176065059141 0.041126277054395 0.0 0.0 0.0 0.0 0.0 0.0 0.0 0.0 0.0 -2.5777207375734 0.26592376195584 9.3711155625893 0.0 0.0 0.0 0.0 0.0 0.0 0.0 0.0 0.0
1317379386980573892 0 1317379386980573892 imu_link 0.01166724647936579 -0.004253341796601092 -0.851401406568112 0.5243676471112527 0.0 0.0 0.0 0.0 0.0 0.0 0.0 0.0 0.0 0.014080783218211 -0.035947320662049 0.042834165688973 0.0 0.0 0.0 0.0 0.0 0.0 0.0 0.0 0.0 -2.7533577114373 0.30430786686957 9.1741943602497 0.0 0.0 0.0 0.0 0.0 0.0 0.0 0.0 0.0
1317379387090593099 0 1317379387090593099 imu_link 0.009631498115018395 -0.005758156276872288 -0.8501713790056704 0.5263864589823224 0.0 0.0 0.0 0.0 0.0 0.0 0.0 0.0 0.0 0.0069595915544854 -0.039661338301946 0.043115573963309 0.0 0.0 0.0 0.0 0.0 0.0 0.0 0.0 0.0 -2.5766993025087 0.36986085091188 10.145910214989 0.0 0.0 0.0 0.0 0.0 0.0 0.0 0.0 0.0
1317379387190529108 0 1317379387190529108 imu_link 0.009767456706572324 -0.006348465022498438 -0.8491009890071597 0.5281020774891978 0.0 0.0 0.0 0.0 0.0 0.0 0.0 0.0 0.0 0.0087690857465178 -0.010883254599762 0.040623551349006 0.0 0.0 0.0 0.0 0.0 0.0 0.0 0.0 0.0 -2.7851385665499 0.30515307580971 10.089790687643 0.0 0.0 0.0 0.0 0.0 0.0 0.0 0.0 0.0
1317379387300728082 0 1317379387300728082 imu_link 0.009262729305670923 -0.005232762654354784 -0.8479094886853356 0.5300342621361244 0.0 0.0 0.0 0.0 0.0 0.0 0.0 0.0 0.0 -0.022162695267603 0.0016024188924699 0.040431888489413 0.0 0.0 0.0 0.0 0.0 0.0 0.0 0.0 0.0 -2.8708546346204 0.46501394164763 10.109309505634 0.0 0.0 0.0 0.0 0.0 0.0 0.0 0.0 0.0
1317379387400665044 0 1317379387400665044 imu_link 0.008389654494649738 -0.0030052802591862965 -0.846940230756054 0.5316134192389298 0.0 0.0 0.0 0.0 0.0 0.0 0.0 0.0 0.0 -0.044496462914617 0.0069936585698886 0.037824393937984 0.0 0.0 0.0 0.0 0.0 0.0 0.0 0.0 0.0 -2.6605451671646 0.3835960729594 9.8783659613924 0.0 0.0 0.0 0.0 0.0 0.0 0.0 0.0 0.0
1317379387500602960 0 1317379387500602960 imu_link 0.007255496059376162 -0.0008896585390435695 -0.8460617598921697 0.533034768784158 0.0 0.0 0.0 0.0 0.0 0.0 0.0 0.0 0.0 -0.047680740668435 0.00072491247951489 0.033220447278198 0.0 0.0 0.0 0.0 0.0 0.0 0.0 0.0 0.0 -2.2222743669898 0.21830037958517 9.305424055467 0.0 0.0 0.0 0.0 0.0 0.0 0.0 0.0 0.0
1317379387610507011 0 1317379387610507011 imu_link 0.005167337897513382 -0.0010292671717637104 -0.8452874359102401 0.5342858691004598 0.0 0.0 0.0 0.0 0.0 0.0 0.0 0.0 0.0 -0.019888580334423 -0.032426618564112 0.025945739978012 0.0 0.0 0.0 0.0 0.0 0.0 0.0 0.0 0.0 -1.4209864651787 -0.062126662028318 9.370574627834 0.0 0.0 0.0 0.0 0.0 0.0 0.0 0.0 0.0
1317379387710536003 0 1317379387710536003 imu_link 0.0032217213804050194 -0.0019029672289088946 -0.8449614630142468 0.5348141034489429 0.0 0.0 0.0 0.0 0.0 0.0 0.0 0.0 0.0 -0.0078229865589432 -0.038265610842147 0.01313532741673 0.0 0.0 0.0 0.0 0.0 0.0 0.0 0.0 0.0 -0.68219845796543 0.15840614964682 10.246087372716 0.0 0.0 0.0 0.0 0.0 0.0 0.0 0.0 0.0
1317379387820533037 0 1317379387820533037 imu_link 0.001777460554453195 -0.0008007684380054916 -0.8450874586585391 0.5346245286384999 0.0 0.0 0.0 0.0 0.0 0.0 0.0 0.0 0.0 -0.031382380615244 -0.012285832090139 -0.0027879145250492 0.0 0.0 0.0 0.0 0.0 0.0 0.0 0.0 0.0 -0.25365608888662 0.31549879595647 10.051125581442 0.0 0.0 0.0 0.0 0.0 0.0 0.0 0.0 0.0
1317379387920675992 0 1317379387920675992 imu_link 0.000915193425931345 0.002205034592641387 -0.845586730309438 0.5338327282661041 0.0 0.0 0.0 0.0 0.0 0.0 0.0 0.0 0.0 -0.057489893363926 0.012884648103194 -0.016973913396397 0.0 0.0 0.0 0.0 0.0 0.0 0.0 0.0 0.0 -0.20632373878153 0.16027356757123 9.7943922194737 0.0 0.0 0.0 0.0 0.0 0.0 0.0 0.0 0.0
1317379388020590066 0 1317379388020590066 imu_link 0.00113636772080926 0.0057566897034697345 -0.8461991103390923 0.5328345285859295 0.0 0.0 0.0 0.0 0.0 0.0 0.0 0.0 0.0 -0.056893530362481 0.038034264906945 -0.022467069237254 0.0 0.0 0.0 0.0 0.0 0.0 0.0 0.0 0.0 -0.24242696095105 -0.21038280696949 9.851719224704 0.0 0.0 0.0 0.0 0.0 0.0 0.0 0.0 0.0
1317379388130518913 0 1317379388130518913 imu_link 0.002932072216365091 0.007823606740289445 -0.8469077486621812 0.5316742041758722 0.0 0.0 0.0 0.0 0.0 0.0 0.0 0.0 0.0 -0.014584951608755 0.045932340910234 -0.024752413558178 0.0 0.0 0.0 0.0 0.0 0.0 0.0 0.0 0.0 -0.34939963889844 -0.64909309777793 9.9456788071441 0.0 0.0 0.0 0.0 0.0 0.0 0.0 0.0 0.0
1317379388230530023 0 1317379388230530023 imu_link 0.005161581169197937 0.007334569274025037 -0.8474872629609485 0.530739956374455 0.0 0.0 0.0 0.0 0.0 0.0 0.0 0.0 0.0 0.026721818562365 0.031075974991833 -0.022627640790566 0.0 0.0 0.0 0.0 0.0 0.0 0.0 0.0 0.0 -0.58536364053784 -0.34245465642329 9.7930498988701 0.0 0.0 0.0 0.0 0.0 0.0 0.0 0.0 0.0
1317379388340524911 0 1317379388340524911 imu_link 0.0050873734577009805 0.006005775261088538 -0.8482342656469685 0.5295627251583738 0.0 0.0 0.0 0.0 0.0 0.0 0.0 0.0 0.0 0.017246296589851 -0.013268177127144 -0.025581875414181 0.0 0.0 0.0 0.0 0.0 0.0 0.0 0.0 0.0 -0.4873629140158 0.11640985540766 9.211226865046 0.0 0.0 0.0 0.0 0.0 0.0 0.0 0.0 0.0
1317379388440556049 0 1317379388440556049 imu_link 0.003623392887144151 0.005166298557079865 -0.8490067472251398 0.528344322908264 0.0 0.0 0.0 0.0 0.0 0.0 0.0 0.0 0.0 -0.00067750364846392 -0.027780232804814 -0.028876075915229 0.0 0.0 0.0 0.0 0.0 0.0 0.0 0.0 0.0 -0.31111365803807 0.06890955962907 9.5346447896822 0.0 0.0 0.0 0.0 0.0 0.0 0.0 0.0 0.0
1317379388550539970 0 1317379388550539970 imu_link 0.0017924878389045736 0.00627382634575091 -0.8497453035701196 0.5271530566646239 0.0 0.0 0.0 0.0 0.0 0.0 0.0 0.0 0.0 -0.030861938435524 -0.018991648962158 -0.024970859647154 0.0 0.0 0.0 0.0 0.0 0.0 0.0 0.0 0.0 -0.26552283332085 -0.011520391627015 9.6621252819621 0.0 0.0 0.0 0.0 0.0 0.0 0.0 0.0 0.0
1317379388650523900 0 1317379388650523900 imu_link 0.0007341099965075277 0.006440287018111579 -0.8503529204489696 0.5261728750796126 0.0 0.0 0.0 0.0 0.0 0.0 0.0 0.0 0.0 -0.011668490869597 -0.0185542750475 -0.023097480923004 0.0 0.0 0.0 0.0 0.0 0.0 0.0 0.0 0.0 -0.24463674825623 -0.53681452559081 9.7767854453451 0.0 0.0 0.0 0.0 0.0 0.0 0.0 0.0 0.0
1317379388750510931 0 1317379388750510931 imu_link 0.00048311212418548953 0.005170354210235126 -0.850849065148934 0.5253845281079387 0.0 0.0 0.0 0.0 0.0 0.0 0.0 0.0 0.0 0.011340431885131 -0.015350351243648 -0.01953359167018 0.0 0.0 0.0 0.0 0.0 0.0 0.0 0.0 0.0 -0.18624165689266 -0.2781379218063 10.289857583325 0.0 0.0 0.0 0.0 0.0 0.0 0.0 0.0 0.0
1317379388860544919 0 1317379388860544919 imu_link 0.0018230462150795644 0.0054317553407086695 -0.8516252065184733 0.5241199100957569 0.0 0.0 0.0 0.0 0.0 0.0 0.0 0.0 0.0 0.0055429384433686 0.024738635933392 -0.027482333854996 0.0 0.0 0.0 0.0 0.0 0.0 0.0 0.0 0.0 -0.1369745695355 0.21576359236659 10.528340437815 0.0 0.0 0.0 0.0 0.0 0.0 0.0 0.0 0.0
1317379388960848093 0 1317379388960848093 imu_link 0.0039044270196774817 0.007524198662274217 -0.8523045834789597 0.5229770921033691 0.0 0.0 0.0 0.0 0.0 0.0 0.0 0.0 0.0 -0.0079957579610925 0.052202263786038 -0.026914970226744 0.0 0.0 0.0 0.0 0.0 0.0 0.0 0.0 0.0 -0.1529939454217 -0.074144067047776 9.2781038757135 0.0 0.0 0.0 0.0 0.0 0.0 0.0 0.0 0.0
1317379389070532083 0 1317379389070532083 imu_link 0.0049200386453743476 0.008385969105715242 -0.8529638504960398 0.5218794290723248 0.0 0.0 0.0 0.0 0.0 0.0 0.0 0.0 0.0 -0.0074832972394401 0.025006626246542 -0.023821860307471 0.0 0.0 0.0 0.0 0.0 0.0 0.0 0.0 0.0 -0.27750616050018 -0.080047510759626 9.4713513429674 0.0 0.0 0.0 0.0 0.0 0.0 0.0 0.0 0.0
1317379389170480012 0 1317379389170480012 imu_link 0.004789186849145259 0.009627220062319353 -0.8536529862316724 0.5207311776924286 0.0 0.0 0.0 0.0 0.0 0.0 0.0 0.0 0.0 -0.020561265429297 0.011247195427928 -0.027029230312739 0.0 0.0 0.0 0.0 0.0 0.0 0.0 0.0 0.0 -0.2388360614658 0.066356240221349 10.029125858392 0.0 0.0 0.0 0.0 0.0 0.0 0.0 0.0 0.0
1317379389270512104 0 1317379389270512104 imu_link 0.005067863053413207 0.010639918755744378 -0.8541882814277173 0.5198302499513723 0.0 0.0 0.0 0.0 0.0 0.0 0.0 0.0 0.0 -0.014337576638218 0.01446666991149 -0.020582785130947 0.0 0.0 0.0 0.0 0.0 0.0 0.0 0.0 0.0 -0.22553487610624 -0.22569299964611 10.070911829321 0.0 0.0 0.0 0.0 0.0 0.0 0.0 0.0 0.0
1317379389380525112 0 1317379389380525112 imu_link 0.005738865827996407 0.011565155302693197 -0.8544929917443556 0.519302454896579 0.0 0.0 0.0 0.0 0.0 0.0 0.0 0.0 0.0 -0.0075039328338594 0.017737718665118 -0.011932655850605 0.0 0.0 0.0 0.0 0.0 0.0 0.0 0.0 0.0 -0.25568126099454 -0.059398190256507 9.4844820431142 0.0 0.0 0.0 0.0 0.0 0.0 0.0 0.0 0.0
1317379389480530977 0 1317379389480530977 imu_link 0.005676780933307547 0.011903319983292006 -0.8547806136641548 0.5188219228555607 0.0 0.0 0.0 0.0 0.0 0.0 0.0 0.0 0.0 -0.0061552867358277 0.0028421474601025 -0.01072809460258 0.0 0.0 0.0 0.0 0.0 0.0 0.0 0.0 0.0 -0.35942592568267 0.067031494109898 9.3024215230365 0.0 0.0 0.0 0.0 0.0 0.0 0.0 0.0 0.0
1317379389590698957 0 1317379389590698957 imu_link 0.005704619896247112 0.010176627365634346 -0.8545658018621735 0.5192120798430645 0.0 0.0 0.0 0.0 0.0 0.0 0.0 0.0 0.0 0.024752793243314 -0.014868340444773 0.0088820941666494 0.0 0.0 0.0 0.0 0.0 0.0 0.0 0.0 0.0 -0.56575000242844 -0.40124502471147 9.7488713208739 0.0 0.0 0.0 0.0 0.0 0.0 0.0 0.0 0.0
1317379389690649032 0 1317379389690649032 imu_link 0.005308033395440347 0.00839041416326804 -0.8533539183330335 0.5212374850270267 0.0 0.0 0.0 0.0 0.0 0.0 0.0 0.0 0.0 0.026970018084496 -0.022506737843871 0.042836956662679 0.0 0.0 0.0 0.0 0.0 0.0 0.0 0.0 0.0 -0.65901032236864 0.17226169920833 10.212813726508 0.0 0.0 0.0 0.0 0.0 0.0 0.0 0.0 0.0
1317379389790524005 0 1317379389790524005 imu_link 0.004843919935874123 0.007778752701560477 -0.8515856764720853 0.5241353480482343 0.0 0.0 0.0 0.0 0.0 0.0 0.0 0.0 0.0 0.0073549799529817 -0.013512250271573 0.064984388109134 0.0 0.0 0.0 0.0 0.0 0.0 0.0 0.0 0.0 -0.71517823059495 0.65189740280869 10.044586845077 0.0 0.0 0.0 0.0 0.0 0.0 0.0 0.0 0.0
1317379389900687932 0 1317379389900687932 imu_link 0.0044680737571825835 0.008758504452898816 -0.8488878219415743 0.5284815897228012 0.0 0.0 0.0 0.0 0.0 0.0 0.0 0.0 0.0 -0.013844347486326 0.003370765511188 0.092640362378005 0.0 0.0 0.0 0.0 0.0 0.0 0.0 0.0 0.0 -0.8785809355926 0.41722885348407 9.8836806849585 0.0 0.0 0.0 0.0 0.0 0.0 0.0 0.0 0.0
1317379390000540018 0 1317379390000540018 imu_link 0.0053846177459867355 0.008588920628733364 -0.8450917205220363 0.534525228814569 0.0 0.0 0.0 0.0 0.0 0.0 0.0 0.0 0.0 0.014543992701531 0.011505083680742 0.13922213739213 0.0 0.0 0.0 0.0 0.0 0.0 0.0 0.0 0.0 -0.85349382157266 0.034690820889858 9.6199773874406 0.0 0.0 0.0 0.0 0.0 0.0 0.0 0.0 0.0
1317379390100467920 0 1317379390100467920 imu_link 0.006899864238014854 0.006265904976567352 -0.8395337346884459 0.543227612174116 0.0 0.0 0.0 0.0 0.0 0.0 0.0 0.0 0.0 0.054771069855871 0.0020876280588448 0.19937490491985 0.0 0.0 0.0 0.0 0.0 0.0 0.0 0.0 0.0 -0.73534651844302 0.24684514915625 9.775359179641 0.0 0.0 0.0 0.0 0.0 0.0 0.0 0.0 0.0
1317379390210505962 0 1317379390210505962 imu_link 0.008766582457743977 0.0027033833752893913 -0.8310855141701541 0.5560689767347828 0.0 0.0 0.0 0.0 0.0 0.0 0.0 0.0 0.0 0.068807172837732 -0.0060010009710156 0.27401515410861 0.0 0.0 0.0 0.0 0.0 0.0 0.0 0.0 0.0 -0.71171526525709 1.1213924175473 9.9741085993967 0.0 0.0 0.0 0.0 0.0 0.0 0.0 0.0 0.0
1317379390310622930 0 1317379390310622930 imu_link 0.009792549206036963 0.0019873764093517013 -0.8214077217952431 0.5702539003726351 0.0 0.0 0.0 0.0 0.0 0.0 0.0 0.0 0.0 0.02965203857543 0.0072541791560186 0.33466293227982 0.0 0.0 0.0 0.0 0.0 0.0 0.0 0.0 0.0 -0.65583247258744 1.8561427682225 10.206452974269 0.0 0.0 0.0 0.0 0.0 0.0 0.0 0.0 0.0
1317379390420675039 0 1317379390420675039 imu_link 0.009504240567065605 0.003573425563711189 -0.8090581974861547 0.5876408198223112 0.0 0.0 0.0 0.0 0.0 0.0 0.0 0.0 0.0 -0.016862471563648 0.0071865996444802 0.38322946401065 0.0 0.0 0.0 0.0 0.0 0.0 0.0 0.0 0.0 -0.62506506717393 1.6938334468949 9.5237302446862 0.0 0.0 0.0 0.0 0.0 0.0 0.0 0.0 0.0
1317379390520452976 0 1317379390520452976 imu_link 0.00758987093750696 0.004550874668005973 -0.7970504059512703 0.6038479392792717 0.0 0.0 0.0 0.0 0.0 0.0 0.0 0.0 0.0 -0.03207560394738 -0.017028541491013 0.4000922785219 0.0 0.0 0.0 0.0 0.0 0.0 0.0 0.0 0.0 -0.4291221146696 1.4448612508043 9.3193124698731 0.0 0.0 0.0 0.0 0.0 0.0 0.0 0.0 0.0
1317379390620479106 0 1317379390620479106 imu_link 0.006025339780318946 0.003304650613432299 -0.78462488778964 0.6199327060463495 0.0 0.0 0.0 0.0 0.0 0.0 0.0 0.0 0.0 0.0011450681249877 -0.0385463510336 0.40598773667262 0.0 0.0 0.0 0.0 0.0 0.0 0.0 0.0 0.0 -0.42111547689021 1.2356615325006 9.5400002963747 0.0 0.0 0.0 0.0 0.0 0.0 0.0 0.0 0.0
1317379390730460882 0 1317379390730460882 imu_link 0.004925139938498574 0.0010178302550697352 -0.7703202204755936 0.6376374086772129 0.0 0.0 0.0 0.0 0.0 0.0 0.0 0.0 0.0 0.017676932977931 -0.039970600359128 0.41335850069257 0.0 0.0 0.0 0.0 0.0 0.0 0.0 0.0 0.0 -0.35687330014937 1.4279180895131 9.9568694788535 0.0 0.0 0.0 0.0 0.0 0.0 0.0 0.0 0.0
1317379390830445051 0 1317379390830445051 imu_link 0.004597822047757583 -0.0005672072920530425 -0.7567223528758685 0.6537199851360784 0.0 0.0 0.0 0.0 0.0 0.0 0.0 0.0 0.0 0.019688504848424 -0.024841423083985 0.41994285489499 0.0 0.0 0.0 0.0 0.0 0.0 0.0 0.0 0.0 -0.21568578611657 1.7015271555039 10.027271204745 0.0 0.0 0.0 0.0 0.0 0.0 0.0 0.0 0.0
1317379390930574893 0 1317379390930574893 imu_link 0.003887689342382545 -0.0004133270175046193 -0.742900252582693 0.6693907153112632 0.0 0.0 0.0 0.0 0.0 0.0 0.0 0.0 0.0 -0.011269846931365 -0.012709493191673 0.41831680604407 0.0 0.0 0.0 0.0 0.0 0.0 0.0 0.0 0.0 -0.31090417782124 1.9907483131188 9.7243251862188 0.0 0.0 0.0 0.0 0.0 0.0 0.0 0.0 0.0
1317379391040487051 0 1317379391040487051 imu_link 0.0011652412260277092 0.0017719614222338525 -0.7274570911683981 0.6861498982543219 0.0 0.0 0.0 0.0 0.0 0.0 0.0 0.0 0.0 -0.054860974026649 -0.011564824656809 0.41439777410944 0.0 0.0 0.0 0.0 0.0 0.0 0.0 0.0 0.0 -0.17607724192576 1.7724395242716 9.7484067978228 0.0 0.0 0.0 0.0 0.0 0.0 0.0 0.0 0.0
1317379391140503883 0 1317379391140503883 imu_link -0.0018753562796020046 0.003735624262733808 -0.713019598277757 0.7011316428617514 0.0 0.0 0.0 0.0 0.0 0.0 0.0 0.0 0.0 -0.066864469818541 -0.016780957937642 0.41644598880929 0.0 0.0 0.0 0.0 0.0 0.0 0.0 0.0 0.0 0.1739277263218 1.3074602523451 9.820275506512 0.0 0.0 0.0 0.0 0.0 0.0 0.0 0.0 0.0
1317379391250463962 0 1317379391250463962 imu_link -0.004636092369882064 0.0033905173039272887 -0.6966604584478855 0.7173780151880399 0.0 0.0 0.0 0.0 0.0 0.0 0.0 0.0 0.0 -0.036912675953991 -0.034836902425316 0.4184239407333 0.0 0.0 0.0 0.0 0.0 0.0 0.0 0.0 0.0 0.81156576473796 1.3741644266166 9.9733502612673 0.0 0.0 0.0 0.0 0.0 0.0 0.0 0.0 0.0
1317379391350457906 0 1317379391350457906 imu_link -0.005874784811297081 0.002172224948125752 -0.6815557241783878 0.7317394093404217 0.0 0.0 0.0 0.0 0.0 0.0 0.0 0.0 0.0 -0.002819522593601 -0.030194509039957 0.41747458657361 0.0 0.0 0.0 0.0 0.0 0.0 0.0 0.0 0.0 0.89396386433259 1.2273267429028 10.198052926166 0.0 0.0 0.0 0.0 0.0 0.0 0.0 0.0 0.0
1317379391450470924 0 1317379391450470924 imu_link -0.004862669402357902 0.000894668145727306 -0.6660557169460048 0.7458856051290547 0.0 0.0 0.0 0.0 0.0 0.0 0.0 0.0 0.0 0.023500460864802 -0.0064873919651013 0.4200297944365 0.0 0.0 0.0 0.0 0.0 0.0 0.0 0.0 0.0 0.96504645767209 1.4697999632786 9.8920674978823 0.0 0.0 0.0 0.0 0.0 0.0 0.0 0.0 0.0
1317379391560441017 0 1317379391560441017 imu_link -0.003982390187083982 0.0017307934357954635 -0.6490317903940362 0.7607488941696808 0.0 0.0 0.0 0.0 0.0 0.0 0.0 0.0 0.0 -0.0009296804114451 0.020281753727605 0.40958661517301 0.0 0.0 0.0 0.0 0.0 0.0 0.0 0.0 0.0 0.93152460995783 2.0120688006513 9.8602733385905 0.0 0.0 0.0 0.0 0.0 0.0 0.0 0.0 0.0
1317379391660437107 0 1317379391660437107 imu_link -0.004316879568228865 0.003396775395047933 -0.6337705562725624 0.7735015891836783 0.0 0.0 0.0 0.0 0.0 0.0 0.0 0.0 0.0 -0.026436821375439 0.021060955923014 0.39888315393901 0.0 0.0 0.0 0.0 0.0 0.0 0.0 0.0 0.0 0.82631852904171 2.0556113687202 9.7215828876644 0.0 0.0 0.0 0.0 0.0 0.0 0.0 0.0 0.0
1317379391760433912 0 1317379391760433912 imu_link -0.006476488599081899 0.005280923633524193 -0.6186153516556923 0.7856495488682641 0.0 0.0 0.0 0.0 0.0 0.0 0.0 0.0 0.0 -0.050663265896353 0.010599032595452 0.39047061531345 0.0 0.0 0.0 0.0 0.0 0.0 0.0 0.0 0.0 0.84491501041629 1.7705965075395 9.8749053400493 0.0 0.0 0.0 0.0 0.0 0.0 0.0 0.0 0.0
1317379391870441913 0 1317379391870441913 imu_link -0.008358143224555602 0.00654952692359053 -0.6021283693209885 0.798328674167327 0.0 0.0 0.0 0.0 0.0 0.0 0.0 0.0 0.0 -0.040736073936479 0.0019186571625715 0.37932098556035 0.0 0.0 0.0 0.0 0.0 0.0 0.0 0.0 0.0 0.95338960743944 1.3552677294111 9.5951459545962 0.0 0.0 0.0 0.0 0.0 0.0 0.0 0.0 0.0
1317379391970467090 0 1317379391970467090 imu_link -0.008511417212165993 0.0057510151003418945 -0.5875810083343744 0.8091001422859322 0.0 0.0 0.0 0.0 0.0 0.0 0.0 0.0 0.0 0.0018845067767935 -0.0097730447775036 0.36399653831076 0.0 0.0 0.0 0.0 0.0 0.0 0.0 0.0 0.0 1.1020026539207 1.2111179847424 9.5549824445212 0.0 0.0 0.0 0.0 0.0 0.0 0.0 0.0 0.0
1317379392080434083 0 1317379392080434083 imu_link -0.0067466545061271735 0.002773472761909407 -0.572492057676254 0.8198778167504123 0.0 0.0 0.0 0.0 0.0 0.0 0.0 0.0 0.0 0.049747838000125 -0.022255272206789 0.33925899170671 0.0 0.0 0.0 0.0 0.0 0.0 0.0 0.0 0.0 1.1921447776708 1.4689686182955 9.4618217942652 0.0 0.0 0.0 0.0 0.0 0.0 0.0 0.0 0.0
1317379392180445909 0 1317379392180445909 imu_link -0.006999094272037267 0.002038472609253064 -0.55955755084225 0.8287594371132164 0.0 0.0 0.0 0.0 0.0 0.0 0.0 0.0 0.0 0.0038312898333114 -0.011234976832854 0.31603963520215 0.0 0.0 0.0 0.0 0.0 0.0 0.0 0.0 0.0 1.2062339456171 2.0861372176046 10.120010555577 0.0 0.0 0.0 0.0 0.0 0.0 0.0 0.0 0.0
1317379392280474901 0 1317379392280474901 imu_link -0.009065923336857525 0.0037362015968747074 -0.5475575899978254 0.8367105446135187 0.0 0.0 0.0 0.0 0.0 0.0 0.0 0.0 0.0 -0.045077904536669 0.0069883263907293 0.2900954984456 0.0 0.0 0.0 0.0 0.0 0.0 0.0 0.0 0.0 1.2916863882681 1.7882664040484 10.489264338856 0.0 0.0 0.0 0.0 0.0 0.0 0.0 0.0 0.0
1317379392390655994 0 1317379392390655994 imu_link -0.010809419121069476 0.007753751367054233 -0.5360441894182945 0.8440851039965619 0.0 0.0 0.0 0.0 0.0 0.0 0.0 0.0 0.0 -0.061802268857676 0.044406412431323 0.24908361678701 0.0 0.0 0.0 0.0 0.0 0.0 0.0 0.0 0.0 1.4248322315057 1.2548033811757 10.100401587932 0.0 0.0 0.0 0.0 0.0 0.0 0.0 0.0 0.0
1317379392490667104 0 1317379392490667104 imu_link -0.01024184272233528 0.009904099388589712 -0.5274292533597047 0.8494794854340958 0.0 0.0 0.0 0.0 0.0 0.0 0.0 0.0 0.0 -0.014547957509514 0.041734505860329 0.20693776877214 0.0 0.0 0.0 0.0 0.0 0.0 0.0 0.0 0.0 1.3902888195784 0.65568699261782 9.3296262702673 0.0 0.0 0.0 0.0 0.0 0.0 0.0 0.0 0.0
1317379392600395917 0 1317379392600395917 imu_link -0.007426472118433326 0.009759522318175989 -0.5196775223127763 0.8542744711384328 0.0 0.0 0.0 0.0 0.0 0.0 0.0 0.0 0.0 0.039135300391782 0.032163936266342 0.16954715993803 0.0 0.0 0.0 0.0 0.0 0.0 0.0 0.0 0.0 1.4520048753509 0.40199138365998 9.9000483894864 0.0 0.0 0.0 0.0 0.0 0.0 0.0 0.0 0.0
1317379392700468063 0 1317379392700468063 imu_link -0.0036171784757097654 0.00969157371403426 -0.5135947743102423 0.8579705106937136 0.0 0.0 0.0 0.0 0.0 0.0 0.0 0.0 0.0 0.061770229360303 0.039070086295527 0.14435625511355 0.0 0.0 0.0 0.0 0.0 0.0 0.0 0.0 0.0 1.4583780856175 0.77320137292898 10.006948718125 0.0 0.0 0.0 0.0 0.0 0.0 0.0 0.0 0.0
1317379392800412893 0 1317379392800412893 imu_link -0.0002593427015326506 0.010367015829761708 -0.5085115247405809 0.8609927333782547 0.0 0.0 0.0 0.0 0.0 0.0 0.0 0.0 0.0 0.050863904410062 0.045591135750956 0.11965847597742 0.0 0.0 0.0 0.0 0.0 0.0 0.0 0.0 0.0 1.4911708067714 1.1095925398311 9.6887146605531 0.0 0.0 0.0 0.0 0.0 0.0 0.0 0.0 0.0
1317379392910634994 0 1317379392910634994 imu_link 0.0015039746917994094 0.011355157366715912 -0.5034956254629736 0.8639218446138242 0.0 0.0 0.0 0.0 0.0 0.0 0.0 0.0 0.0 0.023795696220756 0.030430025055955 0.10866240807085 0.0 0.0 0.0 0.0 0.0 0.0 0.0 0.0 0.0 1.3967905421012 0.68773982581834 9.2098628078982 0.0 0.0 0.0 0.0 0.0 0.0 0.0 0.0 0.0
1317379393010461091 0 1317379393010461091 imu_link 0.0030473110267718586 0.01151307498688938 -0.4985622502841229 0.8667720839941051 0.0 0.0 0.0 0.0 0.0 0.0 0.0 0.0 0.0 0.026189142538161 0.020912798235049 0.11487522819979 0.0 0.0 0.0 0.0 0.0 0.0 0.0 0.0 0.0 1.4119668452928 0.41915645042104 9.5061119766391 0.0 0.0 0.0 0.0 0.0 0.0 0.0 0.0 0.0
1317379393120419979 0 1317379393120419979 imu_link 0.005476596467112987 0.010076368707435607 -0.4927483166964516 0.8700962993126806 0.0 0.0 0.0 0.0 0.0 0.0 0.0 0.0 0.0 0.053106763215327 -0.00087578791984156 0.11928159658047 0.0 0.0 0.0 0.0 0.0 0.0 0.0 0.0 0.0 1.3566346785697 0.59511113384604 9.6006265716237 0.0 0.0 0.0 0.0 0.0 0.0 0.0 0.0 0.0
1317379393220422029 0 1317379393220422029 imu_link 0.005809467386969604 0.00801403127455654 -0.4878498242107933 0.8728714535422201 0.0 0.0 0.0 0.0 0.0 0.0 0.0 0.0 0.0 0.023462441265321 -0.027988492390028 0.11249121415276 0.0 0.0 0.0 0.0 0.0 0.0 0.0 0.0 0.0 1.3890949003877 1.0950669930065 9.6258941522455 0.0 0.0 0.0 0.0 0.0 0.0 0.0 0.0 0.0
1317379393330404043 0 1317379393330404043 imu_link 0.0038166601753236032 0.006165295663346315 -0.4830642120895848 0.875554903608425 0.0 0.0 0.0 0.0 0.0 0.0 0.0 0.0 0.0 -0.0056031394604693 -0.044395392299384 0.099898786992408 0.0 0.0 0.0 0.0 0.0 0.0 0.0 0.0 0.0 1.4329785073764 0.75313281815176 9.495112813415 0.0 0.0 0.0 0.0 0.0 0.0 0.0 0.0 0.0
1317379393430563926 0 1317379393430563926 imu_link 0.0015249280151355988 0.004527851903164853 -0.47959812977427296 0.8774752458438423 0.0 0.0 0.0 0.0 0.0 0.0 0.0 0.0 0.0 -0.024046121264665 -0.046968912477934 0.080258826707261 0.0 0.0 0.0 0.0 0.0 0.0 0.0 0.0 0.0 1.5112897134524 0.78365591459627 9.6036210999062 0.0 0.0 0.0 0.0 0.0 0.0 0.0 0.0 0.0
1317379393530426025 0 1317379393530426025 imu_link -0.0007525506450180575 0.0033721160108788244 -0.477691095448517 0.8785210753478437 0.0 0.0 0.0 0.0 0.0 0.0 0.0 0.0 0.0 -0.024011237620306 -0.039402002835906 0.046683538777974 0.0 0.0 0.0 0.0 0.0 0.0 0.0 0.0 0.0 1.4871872053541 0.43769169938963 10.393149126612 0.0 0.0 0.0 0.0 0.0 0.0 0.0 0.0 0.0
1317379393640383958 0 1317379393640383958 imu_link -0.0032672275850904953 0.00403715635309475 -0.4775028995431724 0.8786148231849671 0.0 0.0 0.0 0.0 0.0 0.0 0.0 0.0 0.0 -0.05039943840989 -0.011151607300708 0.0075147794262663 0.0 0.0 0.0 0.0 0.0 0.0 0.0 0.0 0.0 1.5792752141729 0.39255303552752 10.527958383041 0.0 0.0 0.0 0.0 0.0 0.0 0.0 0.0 0.0
1317379393740423917 0 1317379393740423917 imu_link -0.003970296639781632 0.00665663552443024 -0.47878095045098484 0.8779001807912666 0.0 0.0 0.0 0.0 0.0 0.0 0.0 0.0 0.0 -0.033029182129123 0.031800881032164 -0.025257421246211 0.0 0.0 0.0 0.0 0.0 0.0 0.0 0.0 0.0 1.496096175803 -0.25262620094616 10.199041368232 0.0 0.0 0.0 0.0 0.0 0.0 0.0 0.0 0.0
1317379393850347042 0 1317379393850347042 imu_link -0.004441894008865523 0.007987716395182367 -0.480845955784805 0.8767574537862804 0.0 0.0 0.0 0.0 0.0 0.0 0.0 0.0 0.0 -0.026435269236938 0.011471252545571 -0.040357697608909 0.0 0.0 0.0 0.0 0.0 0.0 0.0 0.0 0.0 1.2378599206704 -0.28370045630114 9.4377932683311 0.0 0.0 0.0 0.0 0.0 0.0 0.0 0.0 0.0
1317379393950593948 0 1317379393950593948 imu_link -0.005368282941550477 0.008776798723288397 -0.48293343972935165 0.8755966206727887 0.0 0.0 0.0 0.0 0.0 0.0 0.0 0.0 0.0 -0.020816907322087 0.0093169973545872 -0.046780606880237 0.0 0.0 0.0 0.0 0.0 0.0 0.0 0.0 0.0 1.385671378405 -0.27844487329907 9.9755324248011 0.0 0.0 0.0 0.0 0.0 0.0 0.0 0.0 0.0
1317379394050406932 0 1317379394050406932 imu_link -0.005656801801866973 0.010410270479521245 -0.4852812608376056 0.8742778304073489 0.0 0.0 0.0 0.0 0.0 0.0 0.0 0.0 0.0 -0.019419511681921 0.020866812828811 -0.05331763987006 0.0 0.0 0.0 0.0 0.0 0.0 0.0 0.0 0.0 1.3642028051868 -0.45668176329645 9.0169439109532 0.0 0.0 0.0 0.0 0.0 0.0 0.0 0.0 0.0
1317379394160367012 0 1317379394160367012 imu_link -0.004580107106803463 0.009580867316072335 -0.4880041381750037 0.8727767129824407 0.0 0.0 0.0 0.0 0.0 0.0 0.0 0.0 0.0 0.020154821299104 0.00018142679316072 -0.056397506555737 0.0 0.0 0.0 0.0 0.0 0.0 0.0 0.0 0.0 1.2645639926786 -0.7689855052269 10.224533402488 0.0 0.0 0.0 0.0 0.0 0.0 0.0 0.0 0.0
1317379394260453939 0 1317379394260453939 imu_link -0.0031148437909250654 0.010469140093033878 -0.49055376962173913 0.8713424665215004 0.0 0.0 0.0 0.0 0.0 0.0 0.0 0.0 0.0 0.0097964080546312 0.025839622701024 -0.059218587791416 0.0 0.0 0.0 0.0 0.0 0.0 0.0 0.0 0.0 1.3640872690633 -0.28256840473101 9.8618057219278 0.0 0.0 0.0 0.0 0.0 0.0 0.0 0.0 0.0
1317379394370397090 0 1317379394370397090 imu_link -0.0035004335966682225 0.01141092883818411 -0.49380821921732554 0.8694889190214553 0.0 0.0 0.0 0.0 0.0 0.0 0.0 0.0 0.0 -0.012660437383749 0.012958623646064 -0.066647602421944 0.0 0.0 0.0 0.0 0.0 0.0 0.0 0.0 0.0 1.1642605298871 -0.19531544197574 9.3387158197759 0.0 0.0 0.0 0.0 0.0 0.0 0.0 0.0 0.0
1317379394470418930 0 1317379394470418930 imu_link -0.004515777997194063 0.010486987175579731 -0.4963510527909193 0.8680468093613416 0.0 0.0 0.0 0.0 0.0 0.0 0.0 0.0 0.0 -0.009396753565992 -0.022434255175163 -0.057464172678882 0.0 0.0 0.0 0.0 0.0 0.0 0.0 0.0 0.0 0.94389649341081 -0.77942773170965 9.8673870953218 0.0 0.0 0.0 0.0 0.0 0.0 0.0 0.0 0.0
1317379394580382108 0 1317379394580382108 imu_link -0.0048511061254209184 0.009161376327969909 -0.4988132447984354 0.8666474962559999 0.0 0.0 0.0 0.0 0.0 0.0 0.0 0.0 0.0 0.0076325103404482 -0.029928006734329 -0.052798442945047 0.0 0.0 0.0 0.0 0.0 0.0 0.0 0.0 0.0 0.82056263264941 -0.57338450970581 9.6579605001485 0.0 0.0 0.0 0.0 0.0 0.0 0.0 0.0 0.0
1317379394680422067 0 1317379394680422067 imu_link -0.005878774954720544 0.007795413508685597 -0.5008422163736742 0.8654835329636065 0.0 0.0 0.0 0.0 0.0 0.0 0.0 0.0 0.0 -0.0022856621049434 -0.030057850117503 -0.047653364803942 0.0 0.0 0.0 0.0 0.0 0.0 0.0 0.0 0.0 1.1515178637911 -0.35416167310888 9.9654983514948 0.0 0.0 0.0 0.0 0.0 0.0 0.0 0.0 0.0
1317379394780395030 0 1317379394780395030 imu_link -0.005519197467209759 0.007431110366758713 -0.5029101313664159 0.8642891395979989 0.0 0.0 0.0 0.0 0.0 0.0 0.0 0.0 0.0 0.0046628210892729 -0.0065554530068736 -0.047359654399259 0.0 0.0 0.0 0.0 0.0 0.0 0.0 0.0 0.0 1.076405034018 -0.29452488790457 10.146062335201 0.0 0.0 0.0 0.0 0.0 0.0 0.0 0.0 0.0
1317379394890553951 0 1317379394890553951 imu_link -0.004402402216321622 0.010828159643765427 -0.5049222155062622 0.8630857003228025 0.0 0.0 0.0 0.0 0.0 0.0 0.0 0.0 0.0 -0.0089793657270477 0.059099367491343 -0.044904033982377 0.0 0.0 0.0 0.0 0.0 0.0 0.0 0.0 0.0 0.69204970875659 -0.1701768604224 10.537018192576 0.0 0.0 0.0 0.0 0.0 0.0 0.0 0.0 0.0
1317379394990555047 0 1317379394990555047 imu_link -0.0030326289735569754 0.014028918585144805 -0.5067106932256399 0.8619966739933697 0.0 0.0 0.0 0.0 0.0 0.0 0.0 0.0 0.0 -0.0038109363657299 0.058607335630333 -0.042390730650946 0.0 0.0 0.0 0.0 0.0 0.0 0.0 0.0 0.0 0.0094886135597788 -0.55059999654439 9.2950481875207 0.0 0.0 0.0 0.0 0.0 0.0 0.0 0.0 0.0
1317379395100409030 0 1317379395100409030 imu_link -0.0019026985214970604 0.011596088032315533 -0.5083271450369806 0.8610838658918395 0.0 0.0 0.0 0.0 0.0 0.0 0.0 0.0 0.0 0.031488057902332 -0.024624242498152 -0.034069400501695 0.0 0.0 0.0 0.0 0.0 0.0 0.0 0.0 0.0 -0.27734888990278 -0.60230229297802 9.1419382751042 0.0 0.0 0.0 0.0 0.0 0.0 0.0 0.0 0.0
1317379395200421094 0 1317379395200421094 imu_link -0.003794310713846538 0.006671224839366444 -0.5092417639623318 0.8605892886864686 0.0 0.0 0.0 0.0 0.0 0.0 0.0 0.0 0.0 0.022162768555354 -0.090046447964629 -0.022492503479525 0.0 0.0 0.0 0.0 0.0 0.0 0.0 0.0 0.0 -0.035667437811269 -0.073576062549 9.527586251 0.0 0.0 0.0 0.0 0.0 0.0 0.0 0.0 0.0
1317379395300359010 0 1317379395300359010 imu_link -0.0051009300789427005 0.0026194367853016524 -0.5103227842798339 0.8599638218600452 0.0 0.0 0.0 0.0 0.0 0.0 0.0 0.0 0.0 0.02269698589432 -0.075708516793833 -0.023738211529104 0.0 0.0 0.0 0.0 0.0 0.0 0.0 0.0 0.0 0.23804830798514 -0.29621599624668 10.922495954402 0.0 0.0 0.0 0.0 0.0 0.0 0.0 0.0 0.0
1317379395410480022 0 1317379395410480022 imu_link -0.003281932912028731 0.0014588119671490414 -0.5110934896814952 0.8595176237804533 0.0 0.0 0.0 0.0 0.0 0.0 0.0 0.0 0.0 0.038577762576989 -0.0057436277461105 -0.017047698100503 0.0 0.0 0.0 0.0 0.0 0.0 0.0 0.0 0.0 0.14147021761481 -0.26178258234728 11.324155782765 0.0 0.0 0.0 0.0 0.0 0.0 0.0 0.0 0.0
1317379395510371923 0 1317379395510371923 imu_link -0.0006861822335074541 0.004100003174828367 -0.5116797004229108 0.8591662256531207 0.0 0.0 0.0 0.0 0.0 0.0 0.0 0.0 0.0 0.018454685110243 0.055856344577019 -0.014616909100232 0.0 0.0 0.0 0.0 0.0 0.0 0.0 0.0 0.0 -0.099528953592207 0.15107060255216 9.5204131313491 0.0 0.0 0.0 0.0 0.0 0.0 0.0 0.0 0.0
1317379395620373964 0 1317379395620373964 imu_link 0.00132488043935894 0.004735675174969552 -0.5121464574478453 0.8588840574816142 0.0 0.0 0.0 0.0 0.0 0.0 0.0 0.0 0.0 0.029019280012647 0.030643528969981 -0.01128912861449 0.0 0.0 0.0 0.0 0.0 0.0 0.0 0.0 0.0 -0.16167454715988 -0.28008536938588 9.0521557742452 0.0 0.0 0.0 0.0 0.0 0.0 0.0 0.0 0.0
1317379395720365047 0 1317379395720365047 imu_link 0.003654608422498725 0.004376987067425451 -0.5120345264592979 0.8589459409852823 0.0 0.0 0.0 0.0 0.0 0.0 0.0 0.0 0.0 0.036686465835917 0.024417682567267 0.0016664240544796 0.0 0.0 0.0 0.0 0.0 0.0 0.0 0.0 0.0 -0.26391628794537 -0.24721737859359 9.6491099727599 0.0 0.0 0.0 0.0 0.0 0.0 0.0 0.0 0.0
1317379395820408105 0 1317379395820408105 imu_link 0.00604430379567362 0.0030500336758705277 -0.5118435916504326 0.8590519782717381 0.0 0.0 0.0 0.0 0.0 0.0 0.0 0.0 0.0 0.052746419309246 0.0043989934538334 0.0025576850160705 0.0 0.0 0.0 0.0 0.0 0.0 0.0 0.0 0.0 -0.45561427994326 0.078757764728788 9.5399600430677 0.0 0.0 0.0 0.0 0.0 0.0 0.0 0.0 0.0
1317379395930581092 0 1317379395930581092 imu_link 0.0069860825114736 0.0021662095599442456 -0.5114458594899 0.8592843737657068 0.0 0.0 0.0 0.0 0.0 0.0 0.0 0.0 0.0 0.02610576851484 -0.0033611609303251 0.0089152727011194 0.0 0.0 0.0 0.0 0.0 0.0 0.0 0.0 0.0 -0.41963272742231 0.074018855515095 9.6231334037714 0.0 0.0 0.0 0.0 0.0 0.0 0.0 0.0 0.0
1317379396030369043 0 1317379396030369043 imu_link 0.006402072144529452 7.013030108868074e-05 -0.5109584147080415 0.8595815883283229 0.0 0.0 0.0 0.0 0.0 0.0 0.0 0.0 0.0 0.010951719866616 -0.04082688437334 0.011105297130971 0.0 0.0 0.0 0.0 0.0 0.0 0.0 0.0 0.0 -0.43767456708513 0.31707726954393 9.4829237960308 0.0 0.0 0.0 0.0 0.0 0.0 0.0 0.0 0.0
1317379396140345096 0 1317379396140345096 imu_link 0.006513200360846894 -0.0023763880551408217 -0.5106699315080796 0.8597488889521196 0.0 0.0 0.0 0.0 0.0 0.0 0.0 0.0 0.0 0.029500267504696 -0.034142372553664 0.0069286650001028 0.0 0.0 0.0 0.0 0.0 0.0 0.0 0.0 0.0 -0.28378759086342 -0.037006632687758 10.013315226979 0.0 0.0 0.0 0.0 0.0 0.0 0.0 0.0 0.0
1317379396240370035 0 1317379396240370035 imu_link 0.007967685159198237 -0.0025822539501116322 -0.5105326189693538 0.8598175928218924 0.0 0.0 0.0 0.0 0.0 0.0 0.0 0.0 0.0 0.022671331091646 0.0095969834257656 0.0044612106279491 0.0 0.0 0.0 0.0 0.0 0.0 0.0 0.0 0.0 -0.24866238331463 0.29179677586132 10.254595470563 0.0 0.0 0.0 0.0 0.0 0.0 0.0 0.0 0.0
1317379396340320110 0 1317379396340320110 imu_link 0.008437407625082938 0.00028767810724665555 -0.5107763231653564 0.859672190481671 0.0 0.0 0.0 0.0 0.0 0.0 0.0 0.0 0.0 -0.014774204969337 0.04656170255333 -0.0036019807862346 0.0 0.0 0.0 0.0 0.0 0.0 0.0 0.0 0.0 -0.48541934818055 0.23632982714465 10.382195124789 0.0 0.0 0.0 0.0 0.0 0.0 0.0 0.0 0.0
1317379396450423002 0 1317379396450423002 imu_link 0.010778231455668537 0.005059905238879076 -0.5112838428610704 0.8593294240946704 0.0 0.0 0.0 0.0 0.0 0.0 0.0 0.0 0.0 -6.4246818331222e-05 0.089121991798689 -0.0089798103552957 0.0 0.0 0.0 0.0 0.0 0.0 0.0 0.0 0.0 -0.81468356327821 -0.44592908083387 9.4182408396928 0.0 0.0 0.0 0.0 0.0 0.0 0.0 0.0 0.0
1317379396550328016 0 1317379396550328016 imu_link 0.0132243987487855 0.006401996406149159 -0.5115706897387996 0.8591155679650542 0.0 0.0 0.0 0.0 0.0 0.0 0.0 0.0 0.0 0.020558686169508 0.048073212796093 -0.0054691527132846 0.0 0.0 0.0 0.0 0.0 0.0 0.0 0.0 0.0 -1.3278915463031 -0.41649328081256 8.6969533664459 0.0 0.0 0.0 0.0 0.0 0.0 0.0 0.0 0.0
1317379396660408020 0 1317379396660408020 imu_link 0.015015824457283125 0.00601997563786221 -0.5121159970861598 0.8587639317284091 0.0 0.0 0.0 0.0 0.0 0.0 0.0 0.0 0.0 0.026898885478193 0.015504631058452 -0.012858244591796 0.0 0.0 0.0 0.0 0.0 0.0 0.0 0.0 0.0 -1.4823496011586 0.28853122341362 9.6306301107317 0.0 0.0 0.0 0.0 0.0 0.0 0.0 0.0 0.0
1317379396760298013 0 1317379396760298013 imu_link 0.013444515329341078 0.005460736991612939 -0.5127704860796954 0.8584030836178657 0.0 0.0 0.0 0.0 0.0 0.0 0.0 0.0 0.0 -0.015134191553327 -0.024620416045786 -0.013474560756376 0.0 0.0 0.0 0.0 0.0 0.0 0.0 0.0 0.0 -1.8221210682505 0.22004018739559 9.3393984527983 0.0 0.0 0.0 0.0 0.0 0.0 0.0 0.0 0.0
1317379396860327005 0 1317379396860327005 imu_link 0.010120681759275463 0.00267727399814606 -0.5136266938922226 0.8579498955801621 0.0 0.0 0.0 0.0 0.0 0.0 0.0 0.0 0.0 -0.023951055521257 -0.072958577430442 -0.018142874234879 0.0 0.0 0.0 0.0 0.0 0.0 0.0 0.0 0.0 -1.9213903289379 -0.08710991015075 9.8429169004337 0.0 0.0 0.0 0.0 0.0 0.0 0.0 0.0 0.0
1317379396970340967 0 1317379396970340967 imu_link 0.007708566954391716 -0.0007928459616128925 -0.5147747416501406 0.8572904494684529 0.0 0.0 0.0 0.0 0.0 0.0 0.0 0.0 0.0 0.003651243048521 -0.074810298917631 -0.025662829638069 0.0 0.0 0.0 0.0 0.0 0.0 0.0 0.0 0.0 -1.8206428561005 -0.42857712471414 10.231474615872 0.0 0.0 0.0 0.0 0.0 0.0 0.0 0.0 0.0
1317379397070353031 0 1317379397070353031 imu_link 0.008009444913723116 -0.0032448427884464014 -0.5161483854352833 0.8564555820356374 0.0 0.0 0.0 0.0 0.0 0.0 0.0 0.0 0.0 0.025019247321832 -0.043154202472463 -0.032597767054436 0.0 0.0 0.0 0.0 0.0 0.0 0.0 0.0 0.0 -1.9746355694432 -0.4444043083823 10.689584798014 0.0 0.0 0.0 0.0 0.0 0.0 0.0 0.0 0.0
1317379397180325031 0 1317379397180325031 imu_link 0.009472630644447434 -0.0023144919075482225 -0.5179359479594111 0.8553638209599879 0.0 0.0 0.0 0.0 0.0 0.0 0.0 0.0 0.0 0.01402585679785 0.024869319614422 -0.038553043136103 0.0 0.0 0.0 0.0 0.0 0.0 0.0 0.0 0.0 -2.1712299665077 -0.22262545760094 10.587985293351 0.0 0.0 0.0 0.0 0.0 0.0 0.0 0.0 0.0
