%time field.header.seq field.header.stamp field.header.frame_id field.orientation.x field.orientation.y field.orientation.z field.orientation.w field.orientation_covariance0 field.orientation_covariance1 field.orientation_covariance2 field.orientation_covariance3 field.orientation_covariance4 field.orientation_covariance5 field.orientation_covariance6 field.orientation_covariance7 field.orientation_covariance8 field.angular_velocity.x field.angular_velocity.y field.angular_velocity.z field.angular_velocity_covariance0 field.angular_velocity_covariance1 field.angular_velocity_covariance2 field.angular_velocity_covariance3 field.angular_velocity_covariance4 field.angular_velocity_covariance5 field.angular_velocity_covariance6 field.angular_velocity_covariance7 field.angular_velocity_covariance8 field.linear_acceleration.x field.linear_acceleration.y field.linear_acceleration.z field.linear_acceleration_covariance0 field.linear_acceleration_covariance1 field.linear_acceleration_covariance2 field.linear_acceleration_covariance3 field.linear_acceleration_covariance4 field.linear_acceleration_covariance5 field.linear_acceleration_covariance6 field.linear_acceleration_covariance7 field.linear_acceleration_covariance8
1317065162154764890 0 1317065162154764890 imu_link -0.014821379763695585 0.016046433749113548 0.9876010642923952 0.1554573139944334 0.0 0.0 0.0 0.0 0.0 0.0 0.0 0.0 0.0 -0.00053109380149303 0.00079332005894054 1.5004979385897e-05 0.0 0.0 0.0 0.0 0.0 0.0 0.0 0.0 0.0 0.0081967408732511 0.0056224780529875 9.8209075026544 0.0 0.0 0.0 0.0 0.0 0.0 0.0 0.0 0.0
1317065162254658937 0 1317065162254658937 imu_link -0.014802027389902276 0.016064423471944155 0.9876030618647054 0.155444609038466 0.0 0.0 0.0 0.0 0.0 0.0 0.0 0.0 0.0 -0.00038555185242407 5.2450414514348e-06 0.00051266840134796 0.0 0.0 0.0 0.0 0.0 0.0 0.0 0.0 0.0 -0.0024898429281042 0.013132841918429 9.795267512528 0.0 0.0 0.0 0.0 0.0 0.0 0.0 0.0 0.0
1317065162354669094 0 1317065162354669094 imu_link -0.014779036782188792 0.016096412841648984 0.9876057864591749 0.15542617578058318 0.0 0.0 0.0 0.0 0.0 0.0 0.0 0.0 0.0 0.00045448093688969 -0.00049138147620128 0.00098654047163071 0.0 0.0 0.0 0.0 0.0 0.0 0.0 0.0 0.0 0.0086015004788575 0.0039867026012962 9.8199363844945 0.0 0.0 0.0 0.0 0.0 0.0 0.0 0.0 0.0
1317065162464709043 0 1317065162464709043 imu_link -0.014756668973031482 0.016077839512106538 0.9876009051029742 0.15546123644571197 0.0 0.0 0.0 0.0 0.0 0.0 0.0 0.0 0.0 -0.0003742086228673 -0.0011767258563798 -0.0004187708113954 0.0 0.0 0.0 0.0 0.0 0.0 0.0 0.0 0.0 0.00576361225721 0.0022672769423371 9.8141976576301 0.0 0.0 0.0 0.0 0.0 0.0 0.0 0.0 0.0
1317065162564723014 0 1317065162564723014 imu_link -0.014802606252417028 0.016109452762890712 0.9876030582545 0.15543991670795013 0.0 0.0 0.0 0.0 0.0 0.0 0.0 0.0 0.0 0.0003081274103718 0.00041821372806368 -0.00018349566774133 0.0 0.0 0.0 0.0 0.0 0.0 0.0 0.0 0.0 -0.0014919102753014 0.010354589716371 9.8060369134347 0.0 0.0 0.0 0.0 0.0 0.0 0.0 0.0 0.0
1317065162664904117 0 1317065162664904117 imu_link -0.014749938289851237 0.016116753417394724 0.9876048658762292 0.15543268149692274 0.0 0.0 0.0 0.0 0.0 0.0 0.0 0.0 0.0 0.00026087225943215 -0.00088217525490784 -0.00013299331963855 0.0 0.0 0.0 0.0 0.0 0.0 0.0 0.0 0.0 0.00050563612044927 0.0038220621173966 9.8132494784651 0.0 0.0 0.0 0.0 0.0 0.0 0.0 0.0 0.0
1317065162774734973 0 1317065162774734973 imu_link -0.014787993472961693 0.016110852826471345 0.9876064559622191 0.15541957345197274 0.0 0.0 0.0 0.0 0.0 0.0 0.0 0.0 0.0 -0.00016969480556292 0.00075564099043488 -0.00079206329547242 0.0 0.0 0.0 0.0 0.0 0.0 0.0 0.0 0.0 -0.0075985971628774 0.011811353143762 9.7987714966037 0.0 0.0 0.0 0.0 0.0 0.0 0.0 0.0 0.0
1317065162874733924 0 1317065162874733924 imu_link -0.01474356298725699 0.01610851536419685 0.9876156133085999 0.15536583740410917 0.0 0.0 0.0 0.0 0.0 0.0 0.0 0.0 0.0 0.00018152088822694 -0.00040797008516532 0.00024215382883057 0.0 0.0 0.0 0.0 0.0 0.0 0.0 0.0 0.0 0.0085970634611241 0.0015399339329 9.8215771085571 0.0 0.0 0.0 0.0 0.0 0.0 0.0 0.0 0.0
1317065162974729061 0 1317065162974729061 imu_link -0.014766303104426472 0.016131612364874683 0.9876211759418685 0.15532591608079685 0.0 0.0 0.0 0.0 0.0 0.0 0.0 0.0 0.0 0.00049968414478539 0.00011235220823827 0.00023656723583732 0.0 0.0 0.0 0.0 0.0 0.0 0.0 0.0 0.0 -0.0076391039170221 0.012228194443942 9.8007931397798 0.0 0.0 0.0 0.0 0.0 0.0 0.0 0.0 0.0
1317065163084731101 0 1317065163084731101 imu_link -0.014754864756683368 0.016122398050783797 0.9876245644049225 0.15530641336110676 0.0 0.0 0.0 0.0 0.0 0.0 0.0 0.0 0.0 9.772613657995e-05 0.00010664684145999 0.00051087542138345 0.0 0.0 0.0 0.0 0.0 0.0 0.0 0.0 0.0 0.0020809054321598 0.0059736437272894 9.8089594195651 0.0 0.0 0.0 0.0 0.0 0.0 0.0 0.0 0.0
1317065163184813976 0 1317065163184813976 imu_link -0.01475172765725764 0.016138690189832328 0.9876235311994253 0.15531158949434734 0.0 0.0 0.0 0.0 0.0 0.0 0.0 0.0 0.0 3.329058994871e-05 0.00016176652486865 0.00064230349209111 0.0 0.0 0.0 0.0 0.0 0.0 0.0 0.0 0.0 -0.0016939366135216 0.0033774338493305 9.8047076814844 0.0 0.0 0.0 0.0 0.0 0.0 0.0 0.0 0.0
1317065163284739971 0 1317065163284739971 imu_link -0.014783256876228387 0.01614678179118885 0.987621855582367 0.15531840563810004 0.0 0.0 0.0 0.0 0.0 0.0 0.0 0.0 0.0 -1.6070029837672e-05 0.000758132582755 0.00016441749509658 0.0 0.0 0.0 0.0 0.0 0.0 0.0 0.0 0.0 0.0054688147125836 0.0040876758428054 9.8148881235169 0.0 0.0 0.0 0.0 0.0 0.0 0.0 0.0 0.0
1317065163394743919 0 1317065163394743919 imu_link -0.014738614842233162 0.016155110564180973 0.9876301883537449 0.1552687885170027 0.0 0.0 0.0 0.0 0.0 0.0 0.0 0.0 0.0 2.3178352767779e-05 -0.00077461681737222 0.0010957122502052 0.0 0.0 0.0 0.0 0.0 0.0 0.0 0.0 0.0 0.0057265448169247 -0.0038599595805838 9.8148608476779 0.0 0.0 0.0 0.0 0.0 0.0 0.0 0.0 0.0
1317065163494762897 0 1317065163494762897 imu_link -0.014786927589804414 0.016170596696126475 0.987630739077617 0.15525907961837507 0.0 0.0 0.0 0.0 0.0 0.0 0.0 0.0 0.0 -0.00014243244858476 0.00077163268186685 0.00099479380741261 0.0 0.0 0.0 0.0 0.0 0.0 0.0 0.0 0.0 -0.0055572756294191 0.010913900130758 9.8013585167378 0.0 0.0 0.0 0.0 0.0 0.0 0.0 0.0 0.0
1317065163604809999 0 1317065163604809999 imu_link -0.014772316119048955 0.01619568168075769 0.9876300361349418 0.1552623273542817 0.0 0.0 0.0 0.0 0.0 0.0 0.0 0.0 0.0 0.00037476624082875 0.00026551822849372 0.00030040713883296 0.0 0.0 0.0 0.0 0.0 0.0 0.0 0.0 0.0 0.0073469545073363 -0.0010721285840832 9.8171092244063 0.0 0.0 0.0 0.0 0.0 0.0 0.0 0.0 0.0
1317065163704807043 0 1317065163704807043 imu_link -0.014770542708966562 0.016175523346388 0.987631766546652 0.155253590040593 0.0 0.0 0.0 0.0 0.0 0.0 0.0 0.0 0.0 -0.00018833724918733 8.9270301011402e-05 0.00036574304639221 0.0 0.0 0.0 0.0 0.0 0.0 0.0 0.0 0.0 -0.0030211025723417 0.0089190837467237 9.7989592391214 0.0 0.0 0.0 0.0 0.0 0.0 0.0 0.0 0.0
1317065163804791927 0 1317065163804791927 imu_link -0.014738414326694661 0.016185001233061037 0.9876290048243241 0.15527322276534275 0.0 0.0 0.0 0.0 0.0 0.0 0.0 0.0 0.0 0.00016696911118506 -0.00082580511076573 -0.00023737935081242 0.0 0.0 0.0 0.0 0.0 0.0 0.0 0.0 0.0 0.0080186428104601 -0.00050019639587534 9.8230807179588 0.0 0.0 0.0 0.0 0.0 0.0 0.0 0.0 0.0
1317065163904766082 0 1317065163904766082 imu_link -0.01478365500556248 0.016187225297385505 0.9876401005753596 0.15519809604934548 0.0 0.0 0.0 0.0 0.0 0.0 0.0 0.0 0.0 -0.00011557697758262 0.00055777570868861 0.0018787463409317 0.0 0.0 0.0 0.0 0.0 0.0 0.0 0.0 0.0 -0.0072762661396535 0.014155841944529 9.7978703942265 0.0 0.0 0.0 0.0 0.0 0.0 0.0 0.0 0.0
1317065164014786958 0 1317065164014786958 imu_link -0.014784934000019305 0.016193774535190313 0.9876374725540753 0.15521401418659536 0.0 0.0 0.0 0.0 0.0 0.0 0.0 0.0 0.0 0.00036691523622345 0.00055889062055062 0.00037859284198093 0.0 0.0 0.0 0.0 0.0 0.0 0.0 0.0 0.0 0.0010169135389117 0.0087635072294806 9.8099389085157 0.0 0.0 0.0 0.0 0.0 0.0 0.0 0.0 0.0
1317065164114758014 0 1317065164114758014 imu_link -0.01475174615837019 0.016174406693132495 0.9876292991910005 0.15527118835410955 0.0 0.0 0.0 0.0 0.0 0.0 0.0 0.0 0.0 -0.0001783611805599 -0.00076010675455579 -0.00014814957410687 0.0 0.0 0.0 0.0 0.0 0.0 0.0 0.0 0.0 0.00027678027270681 0.00056994895883272 9.8084317661475 0.0 0.0 0.0 0.0 0.0 0.0 0.0 0.0 0.0
1317065164224845886 0 1317065164224845886 imu_link -0.014759909397340353 0.016181961266586345 0.987631740102543 0.15525409864532488 0.0 0.0 0.0 0.0 0.0 0.0 0.0 0.0 0.0 0.00010252753020847 -0.00024398496334536 0.00023964595478965 0.0 0.0 0.0 0.0 0.0 0.0 0.0 0.0 0.0 -0.0072146719570812 0.013542228128198 9.8033494491258 0.0 0.0 0.0 0.0 0.0 0.0 0.0 0.0 0.0
1317065164324821949 0 1317065164324821949 imu_link -0.014752710677869433 0.016190757966563853 0.9876288961301721 0.15527195629868543 0.0 0.0 0.0 0.0 0.0 0.0 0.0 0.0 0.0 0.0002429038409416 -0.00030376668591447 -0.00021869820063848 0.0 0.0 0.0 0.0 0.0 0.0 0.0 0.0 0.0 0.0087986880505971 -0.001437030492167 9.8147380800455 0.0 0.0 0.0 0.0 0.0 0.0 0.0 0.0 0.0
1317065164424833059 0 1317065164424833059 imu_link -0.014777710435148418 0.01619170488813705 0.9876324298378663 0.15524700158026394 0.0 0.0 0.0 0.0 0.0 0.0 0.0 0.0 0.0 -2.997843615496e-05 0.0002879601356332 0.00073219070877958 0.0 0.0 0.0 0.0 0.0 0.0 0.0 0.0 0.0 -0.0064959367012982 0.011548972134956 9.8033026456019 0.0 0.0 0.0 0.0 0.0 0.0 0.0 0.0 0.0
1317065164534794092 0 1317065164534794092 imu_link -0.014770177811839735 0.01620217996479506 0.9876231159533218 0.15530586610442923 0.0 0.0 0.0 0.0 0.0 0.0 0.0 0.0 0.0 0.00057992177472513 0.00012104323883536 -0.0012347347662348 0.0 0.0 0.0 0.0 0.0 0.0 0.0 0.0 0.0 0.009219342347013 -0.00075301627124922 9.8214749710174 0.0 0.0 0.0 0.0 0.0 0.0 0.0 0.0 0.0
1317065164635011911 0 1317065164635011911 imu_link -0.014804383444971068 0.0161877396281763 0.9876234532445703 0.15530197010281213 0.0 0.0 0.0 0.0 0.0 0.0 0.0 0.0 0.0 -0.00012869909797351 0.0012096820119166 -0.00058457949308691 0.0 0.0 0.0 0.0 0.0 0.0 0.0 0.0 0.0 -0.003049048189004 0.0091595379985152 9.7928263165694 0.0 0.0 0.0 0.0 0.0 0.0 0.0 0.0 0.0
1317065164734847068 0 1317065164734847068 imu_link -0.014781134086696936 0.016195765954434897 0.9876324522871207 0.15524610922528403 0.0 0.0 0.0 0.0 0.0 0.0 0.0 0.0 0.0 0.00049665929403058 0.00010041494524042 0.00053694011624384 0.0 0.0 0.0 0.0 0.0 0.0 0.0 0.0 0.0 0.0050963314423079 -0.0010308799379746 9.8221312389427 0.0 0.0 0.0 0.0 0.0 0.0 0.0 0.0 0.0
1317065164844993114 0 1317065164844993114 imu_link -0.014789041047274925 0.016173423185406897 0.9876309615849348 0.1552571684856605 0.0 0.0 0.0 0.0 0.0 0.0 0.0 0.0 0.0 -0.00027628446135978 4.1621357155576e-05 -0.00045500932979108 0.0 0.0 0.0 0.0 0.0 0.0 0.0 0.0 0.0 -0.0045613169253744 0.0046545707061437 9.7998795323753 0.0 0.0 0.0 0.0 0.0 0.0 0.0 0.0 0.0
1317065164944837093 0 1317065164944837093 imu_link -0.014789006219140994 0.016194811063133772 0.9876338167048312 0.1552367787952572 0.0 0.0 0.0 0.0 0.0 0.0 0.0 0.0 0.0 0.00027976202092844 0.00052172837006446 -0.00053782407496032 0.0 0.0 0.0 0.0 0.0 0.0 0.0 0.0 0.0 0.01365380409361 0.0012350175037995 9.8178826599503 0.0 0.0 0.0 0.0 0.0 0.0 0.0 0.0 0.0
1317065165044864892 0 1317065165044864892 imu_link -0.014799461756553469 0.01620185687033813 0.9876439876895665 0.15517032366506447 0.0 0.0 0.0 0.0 0.0 0.0 0.0 0.0 0.0 -8.9430444565968e-05 0.00032639567246504 0.00084692645762864 0.0 0.0 0.0 0.0 0.0 0.0 0.0 0.0 0.0 -0.0050766348461635 0.013706460009509 9.799950214708 0.0 0.0 0.0 0.0 0.0 0.0 0.0 0.0 0.0
1317065165155108928 0 1317065165155108928 imu_link -0.014809130310756735 0.01621416734700672 0.9876375445311499 0.1552091204445253 0.0 0.0 0.0 0.0 0.0 0.0 0.0 0.0 0.0 8.9284083364855e-05 0.00073918150208803 -0.00065405434932102 0.0 0.0 0.0 0.0 0.0 0.0 0.0 0.0 0.0 0.00077421502933265 0.0069722844575563 9.8103503245489 0.0 0.0 0.0 0.0 0.0 0.0 0.0 0.0 0.0
1317065165254817962 0 1317065165254817962 imu_link -0.014764579648394891 0.01622083168373488 0.9876382996657926 0.1552078633335194 0.0 0.0 0.0 0.0 0.0 0.0 0.0 0.0 0.0 -1.9523918072425e-06 -0.00064734584638987 -0.00036620334520925 0.0 0.0 0.0 0.0 0.0 0.0 0.0 0.0 0.0 -0.0010152023049752 0.0052213370550312 9.8015527336414 0.0 0.0 0.0 0.0 0.0 0.0 0.0 0.0 0.0
1317065165354795932 0 1317065165354795932 imu_link -0.014781403577269288 0.01624130147480306 0.987641050682489 0.15518661424710484 0.0 0.0 0.0 0.0 0.0 0.0 0.0 0.0 0.0 0.00020235442701499 0.00017620666053915 -0.00019410435143235 0.0 0.0 0.0 0.0 0.0 0.0 0.0 0.0 0.0 0.0112437624021 -0.0007023390940234 9.8211975981242 0.0 0.0 0.0 0.0 0.0 0.0 0.0 0.0 0.0
1317065165464827060 0 1317065165464827060 imu_link -0.014779829268382217 0.016259446738531684 0.98764367937393 0.15516813342719607 0.0 0.0 0.0 0.0 0.0 0.0 0.0 0.0 0.0 0.00020299960356379 0.00030825884645836 -4.7569494537805e-05 0.0 0.0 0.0 0.0 0.0 0.0 0.0 0.0 0.0 -0.00046475260703344 -0.0054722652560444 9.8084544410476 0.0 0.0 0.0 0.0 0.0 0.0 0.0 0.0 0.0
1317065165564841985 0 1317065165564841985 imu_link -0.014787363301928334 0.016266201138729675 0.9876433503920697 0.15516880167552613 0.0 0.0 0.0 0.0 0.0 0.0 0.0 0.0 0.0 1.2109779164543e-05 0.00040175429296351 7.3904899525247e-06 0.0 0.0 0.0 0.0 0.0 0.0 0.0 0.0 0.0 0.00079384631582619 0.0094812621852031 9.8038296662877 0.0 0.0 0.0 0.0 0.0 0.0 0.0 0.0 0.0
1317065165675028085 0 1317065165675028085 imu_link -0.014750836107151676 0.01625380295138 0.9876496112148665 0.1551337235770513 0.0 0.0 0.0 0.0 0.0 0.0 0.0 0.0 0.0 -0.00069865698644346 -0.00053172319053841 0.00054863386769545 0.0 0.0 0.0 0.0 0.0 0.0 0.0 0.0 0.0 0.012075702495705 -0.0052031852777187 9.8224208010276 0.0 0.0 0.0 0.0 0.0 0.0 0.0 0.0 0.0
1317065165774844884 0 1317065165774844884 imu_link -0.014807877182943213 0.016289117521868693 0.9876518864472094 0.15511009838486428 0.0 0.0 0.0 0.0 0.0 0.0 0.0 0.0 0.0 -9.139856098942e-05 0.0012201436244639 0.00068033850462422 0.0 0.0 0.0 0.0 0.0 0.0 0.0 0.0 0.0 -0.0056764532101596 0.0097947928303822 9.7933650802256 0.0 0.0 0.0 0.0 0.0 0.0 0.0 0.0 0.0
1317065165874872922 0 1317065165874872922 imu_link -0.014742949168923918 0.01628226458392963 0.9876505940396011 0.15512523135533 0.0 0.0 0.0 0.0 0.0 0.0 0.0 0.0 0.0 -0.00029352170897588 -0.00080450576643965 -5.5589604676623e-05 0.0 0.0 0.0 0.0 0.0 0.0 0.0 0.0 0.0 0.0022822385540425 -0.011987006330618 9.8154635198092 0.0 0.0 0.0 0.0 0.0 0.0 0.0 0.0 0.0
1317065165974857091 0 1317065165974857091 imu_link -0.014761233186302986 0.016324026581721367 0.9876500429559675 0.1551226121494042 0.0 0.0 0.0 0.0 0.0 0.0 0.0 0.0 0.0 -2.7093796320824e-05 0.00030078973403539 -3.4483315678593e-05 0.0 0.0 0.0 0.0 0.0 0.0 0.0 0.0 0.0 0.0019971050596097 0.012279520207319 9.8093549598709 0.0 0.0 0.0 0.0 0.0 0.0 0.0 0.0 0.0
1317065166084853887 0 1317065166084853887 imu_link -0.01475540067293164 0.01633475453667263 0.9876544308622196 0.155094097706628 0.0 0.0 0.0 0.0 0.0 0.0 0.0 0.0 0.0 -3.306796835121e-05 -0.00018848021122318 0.00029873192350749 0.0 0.0 0.0 0.0 0.0 0.0 0.0 0.0 0.0 0.0069493228685955 -0.0034744728308675 9.8170829487768 0.0 0.0 0.0 0.0 0.0 0.0 0.0 0.0 0.0
1317065166184905052 0 1317065166184905052 imu_link -0.014727581921193767 0.016359339405022162 0.9876580581251325 0.1550710500560246 0.0 0.0 0.0 0.0 0.0 0.0 0.0 0.0 0.0 0.00036064709852216 -0.00097335947733656 0.00029500035801927 0.0 0.0 0.0 0.0 0.0 0.0 0.0 0.0 0.0 -0.0076464000750187 0.0069219749509964 9.8046201559761 0.0 0.0 0.0 0.0 0.0 0.0 0.0 0.0 0.0
1317065166294842958 0 1317065166294842958 imu_link -0.014753374281372054 0.01636802057378244 0.9876611931573305 0.15504771323966104 0.0 0.0 0.0 0.0 0.0 0.0 0.0 0.0 0.0 0.0001219312606968 -3.1978739753264e-05 0.00039161494434132 0.0 0.0 0.0 0.0 0.0 0.0 0.0 0.0 0.0 0.0063106170577395 0.0036605061469398 9.8167438086597 0.0 0.0 0.0 0.0 0.0 0.0 0.0 0.0 0.0
1317065166394805908 0 1317065166394805908 imu_link -0.014749700035804765 0.016349702240536102 0.9876619133510808 0.15504540786873258 0.0 0.0 0.0 0.0 0.0 0.0 0.0 0.0 0.0 -0.00088880201318317 -0.00053381474749967 6.8446685104406e-05 0.0 0.0 0.0 0.0 0.0 0.0 0.0 0.0 0.0 -0.0042039562440483 0.0026148094523735 9.8003166242158 0.0 0.0 0.0 0.0 0.0 0.0 0.0 0.0 0.0
1317065166494882106 0 1317065166494882106 imu_link -0.014780325484865334 0.01637764786670199 0.9876619645913413 0.1550392154536647 0.0 0.0 0.0 0.0 0.0 0.0 0.0 0.0 0.0 1.2514184474267e-05 0.00039543230181158 -0.00032132189663647 0.0 0.0 0.0 0.0 0.0 0.0 0.0 0.0 0.0 0.0067593581879948 -0.0037436355297534 9.8201333309469 0.0 0.0 0.0 0.0 0.0 0.0 0.0 0.0 0.0
1317065166604878902 0 1317065166604878902 imu_link -0.01475313859598339 0.016393838548571595 0.9876693055300929 0.154993322026838 0.0 0.0 0.0 0.0 0.0 0.0 0.0 0.0 0.0 0.00050870037469923 -0.0001995732815679 0.0002129372729327 0.0 0.0 0.0 0.0 0.0 0.0 0.0 0.0 0.0 0.0061983232654098 -0.0041057528966475 9.8106053092641 0.0 0.0 0.0 0.0 0.0 0.0 0.0 0.0 0.0
1317065166704905033 0 1317065166704905033 imu_link -0.014759326955097388 0.01638047024068011 0.9876755040291773 0.15495464240621296 0.0 0.0 0.0 0.0 0.0 0.0 0.0 0.0 0.0 -9.4955065996519e-05 0.00016809128524858 0.00033053953720028 0.0 0.0 0.0 0.0 0.0 0.0 0.0 0.0 0.0 -0.0003953644101665 0.0063084163746244 9.804909682321 0.0 0.0 0.0 0.0 0.0 0.0 0.0 0.0 0.0
1317065166804852962 0 1317065166804852962 imu_link -0.014733863568166736 0.01638748046907681 0.987686085955078 0.15488886131342275 0.0 0.0 0.0 0.0 0.0 0.0 0.0 0.0 0.0 0.00030321203755374 -0.00085069922809262 0.0006130722534796 0.0 0.0 0.0 0.0 0.0 0.0 0.0 0.0 0.0 0.001129365749727 -0.004894414352383 9.8107276533364 0.0 0.0 0.0 0.0 0.0 0.0 0.0 0.0 0.0
1317065166914922952 0 1317065166914922952 imu_link -0.014702457460708179 0.01634767965557585 0.9876962613283796 0.15483115472163847 0.0 0.0 0.0 0.0 0.0 0.0 0.0 0.0 0.0 -0.00023272529025572 -0.0011686027069356 0.00055890651670118 0.0 0.0 0.0 0.0 0.0 0.0 0.0 0.0 0.0 0.12851031495383 0.020206451764623 9.7293567872271 0.0 0.0 0.0 0.0 0.0 0.0 0.0 0.0 0.0
1317065167014867067 0 1317065167014867067 imu_link -0.01450095243171462 0.016271373843158368 0.9877128080313683 0.1547526207294035 0.0 0.0 0.0 0.0 0.0 0.0 0.0 0.0 0.0 -0.00033284729438327 -0.0035592342566576 0.0010046067309876 0.0 0.0 0.0 0.0 0.0 0.0 0.0 0.0 0.0 0.1681558319207 -0.01278873197399 9.7759949088861 0.0 0.0 0.0 0.0 0.0 0.0 0.0 0.0 0.0
1317065167114837884 0 1317065167114837884 imu_link -0.014369828511733745 0.01623912617347055 0.9877259573279462 0.15468429794344876 0.0 0.0 0.0 0.0 0.0 0.0 0.0 0.0 0.0 0.00011455145745322 -0.0025711215452928 0.00080655674492578 0.0 0.0 0.0 0.0 0.0 0.0 0.0 0.0 0.0 0.16216727244868 0.013618876756784 9.8336637443133 0.0 0.0 0.0 0.0 0.0 0.0 0.0 0.0 0.0
1317065167225128889 0 1317065167225128889 imu_link -0.014268448193283503 0.016248390813045473 0.9877246064550337 0.15470133478865272 0.0 0.0 0.0 0.0 0.0 0.0 0.0 0.0 0.0 0.00059299438280037 -0.001064145592636 -0.00080819979025717 0.0 0.0 0.0 0.0 0.0 0.0 0.0 0.0 0.0 0.09708738148166 -0.012830625263196 9.8939218003939 0.0 0.0 0.0 0.0 0.0 0.0 0.0 0.0 0.0
1317065167324963092 0 1317065167324963092 imu_link -0.014352348626983306 0.016267940905178864 0.9877333444820087 0.1546357151048258 0.0 0.0 0.0 0.0 0.0 0.0 0.0 0.0 0.0 -2.5125016965402e-05 0.0012258859624163 -0.00024841701955849 0.0 0.0 0.0 0.0 0.0 0.0 0.0 0.0 0.0 0.06469666095114 0.011467300594502 9.8250804676333 0.0 0.0 0.0 0.0 0.0 0.0 0.0 0.0 0.0
1317065167424912929 0 1317065167424912929 imu_link -0.014427280047779737 0.016291962227378096 0.9877346318548006 0.1546179892246247 0.0 0.0 0.0 0.0 0.0 0.0 0.0 0.0 0.0 0.00040473533543042 0.0012298472740262 -0.00072439429154 0.0 0.0 0.0 0.0 0.0 0.0 0.0 0.0 0.0 0.025180429090152 0.014958333489609 9.8029478955664 0.0 0.0 0.0 0.0 0.0 0.0 0.0 0.0 0.0
1317065167534904003 0 1317065167534904003 imu_link -0.01444015672024317 0.016227827161165075 0.9877390433279426 0.15459534852356602 0.0 0.0 0.0 0.0 0.0 0.0 0.0 0.0 0.0 -0.00060022028404589 -0.00014656259010223 -0.00060539550720553 0.0 0.0 0.0 0.0 0.0 0.0 0.0 0.0 0.0 0.010399990802989 -0.014662455004314 9.791054263714 0.0 0.0 0.0 0.0 0.0 0.0 0.0 0.0 0.0
1317065167635086059 0 1317065167635086059 imu_link -0.01445134631102869 0.01624608812428711 0.9877539718061886 0.15449697211128624 0.0 0.0 0.0 0.0 0.0 0.0 0.0 0.0 0.0 0.00052366176042662 -0.00010649741715936 0.0010126054262354 0.0 0.0 0.0 0.0 0.0 0.0 0.0 0.0 0.0 -0.011080426671578 -0.011056028446229 9.8144641887525 0.0 0.0 0.0 0.0 0.0 0.0 0.0 0.0 0.0
1317065167744981050 0 1317065167744981050 imu_link -0.014452040080882668 0.01624216104527977 0.9877493229301388 0.1545270390356725 0.0 0.0 0.0 0.0 0.0 0.0 0.0 0.0 0.0 -8.2892068185756e-05 -0.00013950276195686 -0.0011042072607182 0.0 0.0 0.0 0.0 0.0 0.0 0.0 0.0 0.0 -0.014018677780554 -0.0071031366546672 9.816960776226 0.0 0.0 0.0 0.0 0.0 0.0 0.0 0.0 0.0
1317065167844963073 0 1317065167844963073 imu_link -0.014482870922208776 0.016285168378413775 0.9877548883497882 0.1544840453957448 0.0 0.0 0.0 0.0 0.0 0.0 0.0 0.0 0.0 0.00050747980841911 0.00080829374013159 7.9356215081072e-05 0.0 0.0 0.0 0.0 0.0 0.0 0.0 0.0 0.0 -0.039826681709042 0.0095021438983587 9.7961360023649 0.0 0.0 0.0 0.0 0.0 0.0 0.0 0.0 0.0
1317065167944896936 0 1317065167944896936 imu_link -0.014474864669626393 0.01625156223952598 0.9877600563028573 0.154455288644148 0.0 0.0 0.0 0.0 0.0 0.0 0.0 0.0 0.0 -0.00033390426752245 -0.00010695156786826 1.6226652792867e-05 0.0 0.0 0.0 0.0 0.0 0.0 0.0 0.0 0.0 -0.036867220466122 -0.0021817110380074 9.8125222995537 0.0 0.0 0.0 0.0 0.0 0.0 0.0 0.0 0.0
1317065168044974088 0 1317065168044974088 imu_link -0.014487590067589373 0.016247865607001657 0.9877655589446322 0.15441929011638605 0.0 0.0 0.0 0.0 0.0 0.0 0.0 0.0 0.0 -5.1811258260783e-05 0.00040493531915281 0.00014289179305382 0.0 0.0 0.0 0.0 0.0 0.0 0.0 0.0 0.0 -0.056744081169525 0.00098102367705327 9.810343055748 0.0 0.0 0.0 0.0 0.0 0.0 0.0 0.0 0.0
1317065168155154943 0 1317065168155154943 imu_link -0.014498981435855623 0.01626178643617664 0.9877696668578904 0.15439047598436575 0.0 0.0 0.0 0.0 0.0 0.0 0.0 0.0 0.0 0.00013819313477351 0.00050999227786779 0.00070527798341147 0.0 0.0 0.0 0.0 0.0 0.0 0.0 0.0 0.0 -0.061535213520649 -0.014667287219165 9.8105440001732 0.0 0.0 0.0 0.0 0.0 0.0 0.0 0.0 0.0
1317065168254976987 0 1317065168254976987 imu_link -0.014504022804269122 0.016272610363237832 0.9877655208640098 0.15441538545983852 0.0 0.0 0.0 0.0 0.0 0.0 0.0 0.0 0.0 0.0002559288677366 0.00029668828882967 0.00030493667242615 0.0 0.0 0.0 0.0 0.0 0.0 0.0 0.0 0.0 -0.080625510663852 0.017514744085955 9.8097349431659 0.0 0.0 0.0 0.0 0.0 0.0 0.0 0.0 0.0
1317065168354933023 0 1317065168354933023 imu_link -0.014479939666031954 0.01625381965682481 0.9877695828610984 0.15439363933868241 0.0 0.0 0.0 0.0 0.0 0.0 0.0 0.0 0.0 -0.00010866777372043 -0.0003656920841491 0.00056546444590153 0.0 0.0 0.0 0.0 0.0 0.0 0.0 0.0 0.0 -0.072954981344779 -0.0027110817583134 9.8195247258415 0.0 0.0 0.0 0.0 0.0 0.0 0.0 0.0 0.0
1317065168464952945 0 1317065168464952945 imu_link -0.014479713560264763 0.016243542971429527 0.9877663074812135 0.15441569548422543 0.0 0.0 0.0 0.0 0.0 0.0 0.0 0.0 0.0 -0.00056690815389148 -0.00036191749621498 -0.00045590118767776 0.0 0.0 0.0 0.0 0.0 0.0 0.0 0.0 0.0 -0.089375360236326 0.001819512501932 9.8065771447769 0.0 0.0 0.0 0.0 0.0 0.0 0.0 0.0 0.0
1317065168564963102 0 1317065168564963102 imu_link -0.014494254343624948 0.016271398015601804 0.9877674761215545 0.15440392259944227 0.0 0.0 0.0 0.0 0.0 0.0 0.0 0.0 0.0 0.00027770096879001 0.00021838666684648 -0.00050890283972145 0.0 0.0 0.0 0.0 0.0 0.0 0.0 0.0 0.0 -0.10198860673913 -9.3030669952799e-05 9.8207141679248 0.0 0.0 0.0 0.0 0.0 0.0 0.0 0.0 0.0
1317065168675160884 0 1317065168675160884 imu_link -0.014433295731222174 0.01624975326743958 0.9877734935384433 0.15437341401919297 0.0 0.0 0.0 0.0 0.0 0.0 0.0 0.0 0.0 -0.00023390551835398 -0.0011993997950547 2.9506655609542e-05 0.0 0.0 0.0 0.0 0.0 0.0 0.0 0.0 0.0 -0.086612839850416 -0.0027569978200387 9.8043755372311 0.0 0.0 0.0 0.0 0.0 0.0 0.0 0.0 0.0
1317065168774935960 0 1317065168774935960 imu_link -0.014402954382958626 0.016278475369792947 0.9877728930516367 0.15437706402531848 0.0 0.0 0.0 0.0 0.0 0.0 0.0 0.0 0.0 0.0010508964022361 -0.00062997174789901 -0.00026507292567288 0.0 0.0 0.0 0.0 0.0 0.0 0.0 0.0 0.0 0.02166920553431 0.006743955679119 9.8103496207372 0.0 0.0 0.0 0.0 0.0 0.0 0.0 0.0 0.0
1317065168874941110 0 1317065168874941110 imu_link -0.01438090479460341 0.016241538112750933 0.9877795781107375 0.1543402315807313 0.0 0.0 0.0 0.0 0.0 0.0 0.0 0.0 0.0 0.00029145907889335 -0.0005660483361532 0.00026099278880259 0.0 0.0 0.0 0.0 0.0 0.0 0.0 0.0 0.0 0.032080464479986 -0.00060460519160125 9.8209392913228 0.0 0.0 0.0 0.0 0.0 0.0 0.0 0.0 0.0
1317065168984967947 0 1317065168984967947 imu_link -0.01448643441692593 0.016235737932311072 0.9877824000778294 0.1543129097909836 0.0 0.0 0.0 0.0 0.0 0.0 0.0 0.0 0.0 -0.00010950238657905 0.0012617714693586 0.00022425304759536 0.0 0.0 0.0 0.0 0.0 0.0 0.0 0.0 0.0 -0.030161143672613 0.011189669730225 9.791121883457 0.0 0.0 0.0 0.0 0.0 0.0 0.0 0.0 0.0
1317065169084964990 0 1317065169084964990 imu_link -0.01441642085359058 0.016229047891099663 0.987786732025474 0.15429243937651335 0.0 0.0 0.0 0.0 0.0 0.0 0.0 0.0 0.0 0.00023732953646422 -0.0011184202351699 1.9107704310042e-05 0.0 0.0 0.0 0.0 0.0 0.0 0.0 0.0 0.0 -0.013489765701839 -0.0025085339749862 9.7994752355267 0.0 0.0 0.0 0.0 0.0 0.0 0.0 0.0 0.0
1317065169185192108 0 1317065169185192108 imu_link -0.014405586868973558 0.016227326891380345 0.9877872459599932 0.15429034204282677 0.0 0.0 0.0 0.0 0.0 0.0 0.0 0.0 0.0 0.00056136353609211 0.00016827699877171 0.00044480548842504 0.0 0.0 0.0 0.0 0.0 0.0 0.0 0.0 0.0 0.027338256750615 -0.0014642345059067 9.8197712466459 0.0 0.0 0.0 0.0 0.0 0.0 0.0 0.0 0.0
1317065169294966936 0 1317065169294966936 imu_link -0.014430194886787474 0.01620203096868619 0.9877807739695854 0.15433212965570667 0.0 0.0 0.0 0.0 0.0 0.0 0.0 0.0 0.0 -0.00025759910121868 0.00011432973306577 3.9991621229922e-05 0.0 0.0 0.0 0.0 0.0 0.0 0.0 0.0 0.0 0.0064168195666865 -0.0031008658797831 9.8159035565238 0.0 0.0 0.0 0.0 0.0 0.0 0.0 0.0 0.0
1317065169395010948 0 1317065169395010948 imu_link -0.014441236926045745 0.016208852480804167 0.9877800828779629 0.15433480374467137 0.0 0.0 0.0 0.0 0.0 0.0 0.0 0.0 0.0 -0.00010525291356579 0.00020884432369252 0.00019962137768009 0.0 0.0 0.0 0.0 0.0 0.0 0.0 0.0 0.0 -0.035255574131608 0.013386027464965 9.7973781518331 0.0 0.0 0.0 0.0 0.0 0.0 0.0 0.0 0.0
1317065169504977941 0 1317065169504977941 imu_link -0.014395906216898673 0.016207811460334842 0.9877812887971569 0.1543314298323201 0.0 0.0 0.0 0.0 0.0 0.0 0.0 0.0 0.0 0.0001755912452604 -0.00037539931646553 -6.6732358103491e-05 0.0 0.0 0.0 0.0 0.0 0.0 0.0 0.0 0.0 0.025090692633337 -0.0055094565150588 9.8200727952317 0.0 0.0 0.0 0.0 0.0 0.0 0.0 0.0 0.0
1317065169605036973 0 1317065169605036973 imu_link -0.014403672393550107 0.016206946752618145 0.9877816443103821 0.15432852057223603 0.0 0.0 0.0 0.0 0.0 0.0 0.0 0.0 0.0 -0.00017139336739199 8.9165641257888e-05 2.4557096806675e-05 0.0 0.0 0.0 0.0 0.0 0.0 0.0 0.0 0.0 0.0063864602917473 0.0044530441352723 9.8082581525862 0.0 0.0 0.0 0.0 0.0 0.0 0.0 0.0 0.0
1317065169705064058 0 1317065169705064058 imu_link -0.014417276395124135 0.016217047822319173 0.9877868682281207 0.15429274920538735 0.0 0.0 0.0 0.0 0.0 0.0 0.0 0.0 0.0 -0.00050013241394773 0.00028673744515336 0.00036787934147352 0.0 0.0 0.0 0.0 0.0 0.0 0.0 0.0 0.0 -0.014653457177583 0.0025044054765167 9.8158819728807 0.0 0.0 0.0 0.0 0.0 0.0 0.0 0.0 0.0
1317065169804991960 0 1317065169804991960 imu_link -0.01439443563036771 0.016218475533021404 0.9877832709969019 0.1543177592272809 0.0 0.0 0.0 0.0 0.0 0.0 0.0 0.0 0.0 -0.00026707356891464 -0.00054536898352547 -0.00049440990547377 0.0 0.0 0.0 0.0 0.0 0.0 0.0 0.0 0.0 -0.008078165484191 0.009855836689262 9.7936805180936 0.0 0.0 0.0 0.0 0.0 0.0 0.0 0.0 0.0
1317065169915023088 0 1317065169915023088 imu_link -0.014403919281244053 0.016243450964515824 0.9877851931234464 0.15430194313805173 0.0 0.0 0.0 0.0 0.0 0.0 0.0 0.0 0.0 0.00047120974449078 0.0007441446270952 0.00021778393688331 0.0 0.0 0.0 0.0 0.0 0.0 0.0 0.0 0.0 0.020612504347594 -0.0022362265989847 9.8226577117705 0.0 0.0 0.0 0.0 0.0 0.0 0.0 0.0 0.0
1317065170015047073 0 1317065170015047073 imu_link -0.014399509000782728 0.016242816886453893 0.9877801834024578 0.15433448842542172 0.0 0.0 0.0 0.0 0.0 0.0 0.0 0.0 0.0 8.2864979889666e-05 -0.0001657135167734 -0.00077956567318734 0.0 0.0 0.0 0.0 0.0 0.0 0.0 0.0 0.0 -0.010780174384669 0.0020727785968552 9.7942113446763 0.0 0.0 0.0 0.0 0.0 0.0 0.0 0.0 0.0
1317065170115009069 0 1317065170115009069 imu_link -0.014405076088407333 0.016277111902746062 0.9877883164806323 0.1542782915233086 0.0 0.0 0.0 0.0 0.0 0.0 0.0 0.0 0.0 0.00054464150721156 0.00016525576142877 0.00069929434364995 0.0 0.0 0.0 0.0 0.0 0.0 0.0 0.0 0.0 -0.010175983209964 0.0067556686537187 9.811806089359 0.0 0.0 0.0 0.0 0.0 0.0 0.0 0.0 0.0
1317065170225054025 0 1317065170225054025 imu_link -0.014139386726666186 0.016204674553950693 0.9877911134775352 0.15429258699109796 0.0 0.0 0.0 0.0 0.0 0.0 0.0 0.0 0.0 -0.00021760656665296 -0.0045202145675129 0.00018419361767322 0.0 0.0 0.0 0.0 0.0 0.0 0.0 0.0 0.0 0.40148683598744 -0.00092196079883093 9.7706928834132 0.0 0.0 0.0 0.0 0.0 0.0 0.0 0.0 0.0
1317065170325088024 0 1317065170325088024 imu_link -0.013884952730970831 0.01616025935219056 0.9877981473619042 0.15427531939269656 0.0 0.0 0.0 0.0 0.0 0.0 0.0 0.0 0.0 -0.00015894351531632 -0.0047308443507828 0.00047880553640731 0.0 0.0 0.0 0.0 0.0 0.0 0.0 0.0 0.0 0.58490931678502 0.0028906974469583 9.8122353735071 0.0 0.0 0.0 0.0 0.0 0.0 0.0 0.0 0.0
1317065170425057888 0 1317065170425057888 imu_link -0.013763444018670846 0.016147970258932495 0.9877949249431155 0.154308123317881 0.0 0.0 0.0 0.0 0.0 0.0 0.0 0.0 0.0 -1.1494586565541e-05 -0.0026958229197332 -0.00091634397076779 0.0 0.0 0.0 0.0 0.0 0.0 0.0 0.0 0.0 0.59787953719536 -0.0041172001748602 9.8378175083802 0.0 0.0 0.0 0.0 0.0 0.0 0.0 0.0 0.0
1317065170535034894 0 1317065170535034894 imu_link -0.013853644849491236 0.016182179290951972 0.9878031548082395 0.1542437711827251 0.0 0.0 0.0 0.0 0.0 0.0 0.0 0.0 0.0 0.00029262251777584 0.0014048794271657 0.00042643841094877 0.0 0.0 0.0 0.0 0.0 0.0 0.0 0.0 0.0 0.56962973943594 0.0097606052793378 9.8126747008164 0.0 0.0 0.0 0.0 0.0 0.0 0.0 0.0 0.0
1317065170635243892 0 1317065170635243892 imu_link -0.013864379010479704 0.016190474421313623 0.9878071514671495 0.15421633844383198 0.0 0.0 0.0 0.0 0.0 0.0 0.0 0.0 0.0 0.00036811197658742 0.00027566211218367 0.00058389889260166 0.0 0.0 0.0 0.0 0.0 0.0 0.0 0.0 0.0 0.56179805120379 -0.0029654894458243 9.7766881804346 0.0 0.0 0.0 0.0 0.0 0.0 0.0 0.0 0.0
1317065170745098114 0 1317065170745098114 imu_link -0.013793980505391334 0.016203179956055434 0.9878234122505637 0.15411712841466232 0.0 0.0 0.0 0.0 0.0 0.0 0.0 0.0 0.0 0.00056477782341296 -0.00055797073816472 0.0017495088410895 0.0 0.0 0.0 0.0 0.0 0.0 0.0 0.0 0.0 0.55178402930016 0.011427748535729 9.8030667880064 0.0 0.0 0.0 0.0 0.0 0.0 0.0 0.0 0.0
1317065170845036029 0 1317065170845036029 imu_link -0.013813922575493829 0.01624939716767296 0.9878259337935041 0.1540943125483784 0.0 0.0 0.0 0.0 0.0 0.0 0.0 0.0 0.0 0.00065354135988528 0.00019945899875744 0.000800772207226 0.0 0.0 0.0 0.0 0.0 0.0 0.0 0.0 0.0 0.54957948208127 -0.018690009086464 9.806017695574 0.0 0.0 0.0 0.0 0.0 0.0 0.0 0.0 0.0
1317065170945020914 0 1317065170945020914 imu_link -0.01383221222304103 0.016297739693465454 0.9878250476683873 0.15409324704492855 0.0 0.0 0.0 0.0 0.0 0.0 0.0 0.0 0.0 0.00078178440182688 0.00035885293828473 0.0006286878665862 0.0 0.0 0.0 0.0 0.0 0.0 0.0 0.0 0.0 0.54153862682722 0.0055438303874883 9.7884417877899 0.0 0.0 0.0 0.0 0.0 0.0 0.0 0.0 0.0
1317065171055079936 0 1317065171055079936 imu_link -0.013783106692779695 0.01632968462731511 0.9878240437228655 0.15410070088378686 0.0 0.0 0.0 0.0 0.0 0.0 0.0 0.0 0.0 0.00041053163640573 -0.0010618202440143 0.00018391833331597 0.0 0.0 0.0 0.0 0.0 0.0 0.0 0.0 0.0 0.58919194956851 0.0046794398954898 9.7896483719786 0.0 0.0 0.0 0.0 0.0 0.0 0.0 0.0 0.0
1317065171155294895 0 1317065171155294895 imu_link -0.013682128744240409 0.016337804593465018 0.9878249755043412 0.15410286585245297 0.0 0.0 0.0 0.0 0.0 0.0 0.0 0.0 0.0 -7.9182163175802e-06 -0.0021999279193016 0.00031229835334571 0.0 0.0 0.0 0.0 0.0 0.0 0.0 0.0 0.0 0.68662529284604 -0.0082448022426047 9.7574032070569 0.0 0.0 0.0 0.0 0.0 0.0 0.0 0.0 0.0
1317065171265090942 0 1317065171265090942 imu_link -0.013471102211204955 0.016279531477290634 0.9878453754574261 0.15399681960180792 0.0 0.0 0.0 0.0 0.0 0.0 0.0 0.0 0.0 -0.00094336498095231 -0.0042171796416474 0.0016944541613991 0.0 0.0 0.0 0.0 0.0 0.0 0.0 0.0 0.0 0.85062845925613 0.014194793860214 9.7374348138054 0.0 0.0 0.0 0.0 0.0 0.0 0.0 0.0 0.0
1317065171365077972 0 1317065171365077972 imu_link -0.013121127113107936 0.016099271018407517 0.9878578872613459 0.1539657236903964 0.0 0.0 0.0 0.0 0.0 0.0 0.0 0.0 0.0 -0.0023623755430258 -0.0073739337335789 0.0013030460017442 0.0 0.0 0.0 0.0 0.0 0.0 0.0 0.0 0.0 1.0200922790622 0.010929303069932 9.7524257907897 0.0 0.0 0.0 0.0 0.0 0.0 0.0 0.0 0.0
1317065171465120077 0 1317065171465120077 imu_link -0.012771325257776139 0.015945174052492853 0.9878665148566901 0.15395581671535774 0.0 0.0 0.0 0.0 0.0 0.0 0.0 0.0 0.0 -0.0021573173521324 -0.0068138111196538 0.00044863704366126 0.0 0.0 0.0 0.0 0.0 0.0 0.0 0.0 0.0 1.0405704203742 -0.011171188638134 9.8482604004226 0.0 0.0 0.0 0.0 0.0 0.0 0.0 0.0 0.0
1317065171565120935 0 1317065171565120935 imu_link -0.012711427211637767 0.015903990322228907 0.9878732860090247 0.15392158230672306 0.0 0.0 0.0 0.0 0.0 0.0 0.0 0.0 0.0 -0.00078256781769236 -0.0019615478193208 0.00068336034275024 0.0 0.0 0.0 0.0 0.0 0.0 0.0 0.0 0.0 0.99868867551358 -0.023811251323726 9.8797854222641 0.0 0.0 0.0 0.0 0.0 0.0 0.0 0.0 0.0
1317065171675190925 0 1317065171675190925 imu_link -0.012896616250002064 0.015961097915979525 0.9878898030919374 0.15379420531863283 0.0 0.0 0.0 0.0 0.0 0.0 0.0 0.0 0.0 0.00048553681062509 0.0021855488212604 0.0027146021343313 0.0 0.0 0.0 0.0 0.0 0.0 0.0 0.0 0.0 0.9515772399871 -0.012419299136039 9.7957427726146 0.0 0.0 0.0 0.0 0.0 0.0 0.0 0.0 0.0
1317065171785115003 0 1317065171785115003 imu_link -0.01293278599361031 0.01606461214777944 0.9878948242752552 0.15374812991756193 0.0 0.0 0.0 0.0 0.0 0.0 0.0 0.0 0.0 0.0016211767340961 0.0010738144871395 0.0017200147562085 0.0 0.0 0.0 0.0 0.0 0.0 0.0 0.0 0.0 0.88808390969281 0.030104403580277 9.7904939270544 0.0 0.0 0.0 0.0 0.0 0.0 0.0 0.0 0.0
1317065171875097990 0 1317065171875097990 imu_link -0.013065886528918408 0.016068473719249524 0.9878888123017516 0.1537750997092237 0.0 0.0 0.0 0.0 0.0 0.0 0.0 0.0 0.0 0.00010168745338452 0.0023768759683246 -0.00049260642869207 0.0 0.0 0.0 0.0 0.0 0.0 0.0 0.0 0.0 0.8054614563562 0.031801065644277 9.7691669218201 0.0 0.0 0.0 0.0 0.0 0.0 0.0 0.0 0.0
1317065171985101938 0 1317065171985101938 imu_link -0.013203270707513665 0.01585580684010146 0.9879083143564126 0.15366011017028872 0.0 0.0 0.0 0.0 0.0 0.0 0.0 0.0 0.0 -0.0028633256023332 0.0015330514053399 0.0012974265442689 0.0 0.0 0.0 0.0 0.0 0.0 0.0 0.0 0.0 0.77792123064438 0.013038531023953 9.7396858954076 0.0 0.0 0.0 0.0 0.0 0.0 0.0 0.0 0.0
1317065172085117101 0 1317065172085117101 imu_link -0.013100622076630531 0.015840913531639154 0.9879299098483448 0.1535315354796189 0.0 0.0 0.0 0.0 0.0 0.0 0.0 0.0 0.0 -0.00014788386689423 -0.00090280512756442 0.0023499666787141 0.0 0.0 0.0 0.0 0.0 0.0 0.0 0.0 0.0 0.74603419589703 -0.046680484554876 9.7571117736621 0.0 0.0 0.0 0.0 0.0 0.0 0.0 0.0 0.0
1317065172185183048 0 1317065172185183048 imu_link -0.013000253416743523 0.01593084257162678 0.9879421588828153 0.15345192200823293 0.0 0.0 0.0 0.0 0.0 0.0 0.0 0.0 0.0 0.0019115885033988 -0.00091761002618002 0.0018593120500258 0.0 0.0 0.0 0.0 0.0 0.0 0.0 0.0 0.0 0.76317305335952 0.013245037346686 9.7761306335366 0.0 0.0 0.0 0.0 0.0 0.0 0.0 0.0 0.0
1317065172295124053 0 1317065172295124053 imu_link -0.012728177006566354 0.0160001179626175 0.9879639124065309 0.15332741932756816 0.0 0.0 0.0 0.0 0.0 0.0 0.0 0.0 0.0 0.0019314933445035 -0.0042734653214884 0.0024358774053267 0.0 0.0 0.0 0.0 0.0 0.0 0.0 0.0 0.0 0.86267702824982 0.018038833670087 9.7441225641882 0.0 0.0 0.0 0.0 0.0 0.0 0.0 0.0 0.0
1317065172395091056 0 1317065172395091056 imu_link -0.012573336333287694 0.01596309162722302 0.9879864938759144 0.15319849489446263 0.0 0.0 0.0 0.0 0.0 0.0 0.0 0.0 0.0 -0.00044720124262419 -0.0033245927114416 0.0012948666566216 0.0 0.0 0.0 0.0 0.0 0.0 0.0 0.0 0.0 0.97303546066945 0.039645563881907 9.7954662510117 0.0 0.0 0.0 0.0 0.0 0.0 0.0 0.0 0.0
1317065172495142936 0 1317065172495142936 imu_link -0.01259741649079328 0.015854296840817884 0.9880007018938436 0.15311616317917923 0.0 0.0 0.0 0.0 0.0 0.0 0.0 0.0 0.0 -0.0025063398098641 -0.00072428485810761 0.00092144272242525 0.0 0.0 0.0 0.0 0.0 0.0 0.0 0.0 0.0 1.0165201923288 0.030678354995472 9.7863657766412 0.0 0.0 0.0 0.0 0.0 0.0 0.0 0.0 0.0
1317065172605186939 0 1317065172605186939 imu_link -0.012536059639394855 0.015645003733402735 0.9880313018752778 0.15294517835336688 0.0 0.0 0.0 0.0 0.0 0.0 0.0 0.0 0.0 -0.0032228065484163 -0.0022065185550324 0.0025164146128728 0.0 0.0 0.0 0.0 0.0 0.0 0.0 0.0 0.0 1.0895059604086 -0.012279689754231 9.8142145484493 0.0 0.0 0.0 0.0 0.0 0.0 0.0 0.0 0.0
1317065172705226898 0 1317065172705226898 imu_link -0.012466294199915906 0.015583033293828505 0.9880397428535339 0.1529026720636598 0.0 0.0 0.0 0.0 0.0 0.0 0.0 0.0 0.0 -0.00096626181027465 -0.0022631800618602 0.001022657668873 0.0 0.0 0.0 0.0 0.0 0.0 0.0 0.0 0.0 1.1242411249962 -0.009991312540311 9.8199498709927 0.0 0.0 0.0 0.0 0.0 0.0 0.0 0.0 0.0
1317065172815159082 0 1317065172815159082 imu_link -0.012291933137169558 0.015804400262796565 0.9880494936180907 0.15283104224312363 0.0 0.0 0.0 0.0 0.0 0.0 0.0 0.0 0.0 0.0041001196885304 -0.0040824090342142 0.0013168086250316 0.0 0.0 0.0 0.0 0.0 0.0 0.0 0.0 0.0 1.1275520848388 -0.071393154454786 9.8333281453844 0.0 0.0 0.0 0.0 0.0 0.0 0.0 0.0 0.0
1317065172915143966 0 1317065172915143966 imu_link -0.011922821016076475 0.016242067708265813 0.9880741092910224 0.1526551542671633 0.0 0.0 0.0 0.0 0.0 0.0 0.0 0.0 0.0 0.0094763396523894 -0.0072384683773717 0.002278711147323 0.0 0.0 0.0 0.0 0.0 0.0 0.0 0.0 0.0 1.2378823490075 -0.0072904605440083 9.7487258014648 0.0 0.0 0.0 0.0 0.0 0.0 0.0 0.0 0.0
1317065173025166988 0 1317065173025166988 imu_link -0.011804182067405284 0.01594477223437148 0.9880683512601894 0.15273296553817248 0.0 0.0 0.0 0.0 0.0 0.0 0.0 0.0 0.0 -0.0049434732869561 -0.0022935080925397 -0.00072886020025985 0.0 0.0 0.0 0.0 0.0 0.0 0.0 0.0 0.0 1.4393484745234 0.13378349161938 9.6870425123931 0.0 0.0 0.0 0.0 0.0 0.0 0.0 0.0 0.0
1317065173125196933 0 1317065173125196933 imu_link -0.011865665240572466 0.01546195605352637 0.9881102343356425 0.15250671691620457 0.0 0.0 0.0 0.0 0.0 0.0 0.0 0.0 0.0 -0.0092149165212648 -0.001175192787495 0.0041112198857717 0.0 0.0 0.0 0.0 0.0 0.0 0.0 0.0 0.0 1.5230655844145 0.025395114014761 9.6761522118915 0.0 0.0 0.0 0.0 0.0 0.0 0.0 0.0 0.0
1317065173225176095 0 1317065173225176095 imu_link -0.011424612869993123 0.015232151677852353 0.9881597903899922 0.152242203190969 0.0 0.0 0.0 0.0 0.0 0.0 0.0 0.0 0.0 -0.00068727180722409 -0.0093633545985932 0.0045661216143929 0.0 0.0 0.0 0.0 0.0 0.0 0.0 0.0 0.0 1.6076330945739 -0.13419179834798 9.8636012076245 0.0 0.0 0.0 0.0 0.0 0.0 0.0 0.0 0.0
1317065173325215101 0 1317065173325215101 imu_link -0.010758778636073565 0.015765509952662387 0.9881538176088102 0.15227517894695405 0.0 0.0 0.0 0.0 0.0 0.0 0.0 0.0 0.0 0.010641229901251 -0.011352424298141 -0.0010185815850931 0.0 0.0 0.0 0.0 0.0 0.0 0.0 0.0 0.0 1.7407258677081 -0.063179987707789 9.8598607624485 0.0 0.0 0.0 0.0 0.0 0.0 0.0 0.0 0.0
1317065173435297012 0 1317065173435297012 imu_link -0.010383698375440478 0.01679922288381094 0.9881465259316535 0.1522379985672161 0.0 0.0 0.0 0.0 0.0 0.0 0.0 0.0 0.0 0.0173769727233 -0.0042157852995142 0.0015676298482582 0.0 0.0 0.0 0.0 0.0 0.0 0.0 0.0 0.0 1.8756473615451 -0.0069344058153928 9.7966552766712 0.0 0.0 0.0 0.0 0.0 0.0 0.0 0.0 0.0
1317065173535376071 0 1317065173535376071 imu_link -0.010413697158580383 0.01711902302067749 0.9881684428486068 0.15205795776764314 0.0 0.0 0.0 0.0 0.0 0.0 0.0 0.0 0.0 0.0075388822117164 0.00023517518948771 0.0028025041145002 0.0 0.0 0.0 0.0 0.0 0.0 0.0 0.0 0.0 2.0392716817727 0.13539724790841 9.6516202763349 0.0 0.0 0.0 0.0 0.0 0.0 0.0 0.0 0.0
1317065173645251989 0 1317065173645251989 imu_link -0.01036900058550622 0.016860979727149124 0.9881896479097991 0.15195200213687735 0.0 0.0 0.0 0.0 0.0 0.0 0.0 0.0 0.0 -0.0030358620748436 -0.0025173761125111 0.0014616984961016 0.0 0.0 0.0 0.0 0.0 0.0 0.0 0.0 0.0 2.1173132416401 0.13310847661661 9.6848782756465 0.0 0.0 0.0 0.0 0.0 0.0 0.0 0.0 0.0
1317065173745212078 0 1317065173745212078 imu_link -0.010374757235407268 0.0164062527589141 0.9882091744113668 0.15187437865526215 0.0 0.0 0.0 0.0 0.0 0.0 0.0 0.0 0.0 -0.0070585348872373 -0.0010952921693791 0.0011527478097597 0.0 0.0 0.0 0.0 0.0 0.0 0.0 0.0 0.0 2.1009916628086 0.013418754201037 9.8464504034855 0.0 0.0 0.0 0.0 0.0 0.0 0.0 0.0 0.0
1317065173845196962 0 1317065173845196962 imu_link -0.010739978889519525 0.016406306963118317 0.988231309182249 0.1517048631297718 0.0 0.0 0.0 0.0 0.0 0.0 0.0 0.0 0.0 -0.0048932596743896 0.0083059085576451 0.0038814423815521 0.0 0.0 0.0 0.0 0.0 0.0 0.0 0.0 0.0 2.1611648782683 -0.073006248610774 9.5034216612088 0.0 0.0 0.0 0.0 0.0 0.0 0.0 0.0 0.0
1317065173945374965 0 1317065173945374965 imu_link -0.010534007375712993 0.01578507664233775 0.9882570581764129 0.15161745614706096 0.0 0.0 0.0 0.0 0.0 0.0 0.0 0.0 0.0 -0.0064011133619369 -0.0021244800379889 0.00052779528147598 0.0 0.0 0.0 0.0 0.0 0.0 0.0 0.0 0.0 1.9486652597165 0.13478691096201 9.7902710858047 0.0 0.0 0.0 0.0 0.0 0.0 0.0 0.0 0.0
1317065174055182933 0 1317065174055182933 imu_link -0.010694018401285489 0.016407816593447457 0.9882556614178762 0.15154923028700829 0.0 0.0 0.0 0.0 0.0 0.0 0.0 0.0 0.0 0.0074007139482151 0.0046091783394463 0.0022153925452309 0.0 0.0 0.0 0.0 0.0 0.0 0.0 0.0 0.0 1.8105547146737 -0.33847941202529 10.049756135951 0.0 0.0 0.0 0.0 0.0 0.0 0.0 0.0 0.0
1317065174155235052 0 1317065174155235052 imu_link -0.010958809430837999 0.017364861590004416 0.9882769552182715 0.15128458567323003 0.0 0.0 0.0 0.0 0.0 0.0 0.0 0.0 0.0 0.017862496573593 0.0082069596669702 0.0037108237517225 0.0 0.0 0.0 0.0 0.0 0.0 0.0 0.0 0.0 1.813112001508 0.049548146632071 9.7595294156868 0.0 0.0 0.0 0.0 0.0 0.0 0.0 0.0 0.0
1317065174265285968 0 1317065174265285968 imu_link -0.011491730342333983 0.018488112941940745 0.9882236715273413 0.15145991168162817 0.0 0.0 0.0 0.0 0.0 0.0 0.0 0.0 0.0 0.014707616544615 0.013514602268096 -0.0028164826895318 0.0 0.0 0.0 0.0 0.0 0.0 0.0 0.0 0.0 1.5755272034235 0.20311854950429 9.5912996974288 0.0 0.0 0.0 0.0 0.0 0.0 0.0 0.0 0.0
1317065174365185976 0 1317065174365185976 imu_link -0.011659244784317105 0.01791026344244408 0.9882243052263903 0.1515123989457621 0.0 0.0 0.0 0.0 0.0 0.0 0.0 0.0 0.0 -0.0073221855963826 0.0041371761027877 -0.0016506667711014 0.0 0.0 0.0 0.0 0.0 0.0 0.0 0.0 0.0 1.5983723398952 0.064486359105803 9.6451166915646 0.0 0.0 0.0 0.0 0.0 0.0 0.0 0.0 0.0
1317065174465200901 0 1317065174465200901 imu_link -0.011568556753654662 0.017433408987707715 0.9881571904895374 0.15201187989604265 0.0 0.0 0.0 0.0 0.0 0.0 0.0 0.0 0.0 -0.0080469381561918 -0.0016153528369945 -0.0096876870652409 0.0 0.0 0.0 0.0 0.0 0.0 0.0 0.0 0.0 1.6768851936424 0.0059930411950368 9.6237824507525 0.0 0.0 0.0 0.0 0.0 0.0 0.0 0.0 0.0
1317065174565208911 0 1317065174565208911 imu_link -0.011107739648705352 0.01730589856056323 0.9880278027467553 0.15289926420466113 0.0 0.0 0.0 0.0 0.0 0.0 0.0 0.0 0.0 -0.0012940428324874 -0.0067331735778939 -0.016916231645545 0.0 0.0 0.0 0.0 0.0 0.0 0.0 0.0 0.0 1.6918766674751 -0.1613554607505 9.7504347915851 0.0 0.0 0.0 0.0 0.0 0.0 0.0 0.0 0.0
1317065174675348997 0 1317065174675348997 imu_link -0.010842665619987198 0.017477326393060863 0.9879317895876201 0.15351794288162554 0.0 0.0 0.0 0.0 0.0 0.0 0.0 0.0 0.0 0.0023443411312604 -0.0046425812477356 -0.010258142086042 0.0 0.0 0.0 0.0 0.0 0.0 0.0 0.0 0.0 1.6749458559731 -0.29885778222372 9.8143339845738 0.0 0.0 0.0 0.0 0.0 0.0 0.0 0.0 0.0
1317065174775228023 0 1317065174775228023 imu_link -0.01026870675089577 0.018238623835239724 0.9878597157775382 0.1539320895920742 0.0 0.0 0.0 0.0 0.0 0.0 0.0 0.0 0.0 0.013412420926308 -0.0085506646811279 -0.0086505508015171 0.0 0.0 0.0 0.0 0.0 0.0 0.0 0.0 0.0 1.6868674510989 0.020632080320012 9.8528490370306 0.0 0.0 0.0 0.0 0.0 0.0 0.0 0.0 0.0
1317065174875197887 0 1317065174875197887 imu_link -0.010095063938006004 0.01849991546438925 0.987779313509692 0.15442755781990353 0.0 0.0 0.0 0.0 0.0 0.0 0.0 0.0 0.0 0.0058353379403624 -0.001977574628058 -0.0089698896267293 0.0 0.0 0.0 0.0 0.0 0.0 0.0 0.0 0.0 1.6816476248278 0.03884049850142 9.8185989888376 0.0 0.0 0.0 0.0 0.0 0.0 0.0 0.0 0.0
1317065174985191106 0 1317065174985191106 imu_link -0.010185735187133787 0.01829072688493546 0.9877430067387348 0.15467854650028878 0.0 0.0 0.0 0.0 0.0 0.0 0.0 0.0 0.0 -0.0037746745142835 3.6339060737512e-05 -0.0034200885323473 0.0 0.0 0.0 0.0 0.0 0.0 0.0 0.0 0.0 1.5836098528781 -0.0056799575460705 9.6695311819665 0.0 0.0 0.0 0.0 0.0 0.0 0.0 0.0 0.0
1317065175085241079 0 1317065175085241079 imu_link -0.009998497985588049 0.01794730990860007 0.9877458955828063 0.1547125394542953 0.0 0.0 0.0 0.0 0.0 0.0 0.0 0.0 0.0 -0.0053544133834157 -0.004009960898323 -0.0012527257572821 0.0 0.0 0.0 0.0 0.0 0.0 0.0 0.0 0.0 1.6257992703335 -0.0084840961896547 9.8080200308599 0.0 0.0 0.0 0.0 0.0 0.0 0.0 0.0 0.0
1317065175185379981 0 1317065175185379981 imu_link -0.009845652577635148 0.01822211546659086 0.9877092791776306 0.15492384406426352 0.0 0.0 0.0 0.0 0.0 0.0 0.0 0.0 0.0 0.0033460339206537 -0.0024113896766858 -0.0030624767412558 0.0 0.0 0.0 0.0 0.0 0.0 0.0 0.0 0.0 1.5992774503685 -0.11896076433965 9.9674613021185 0.0 0.0 0.0 0.0 0.0 0.0 0.0 0.0 0.0
1317065175295244932 0 1317065175295244932 imu_link -0.009996652720629277 0.018708053922958486 0.9876748211821639 0.15507586290451378 0.0 0.0 0.0 0.0 0.0 0.0 0.0 0.0 0.0 0.0093833114851137 0.0020973785841346 -0.0011733211511583 0.0 0.0 0.0 0.0 0.0 0.0 0.0 0.0 0.0 1.5642878072456 -0.12449220188125 9.8119708865397 0.0 0.0 0.0 0.0 0.0 0.0 0.0 0.0 0.0
1317065175395239114 0 1317065175395239114 imu_link -0.010203253970954514 0.019444092160278603 0.9876816735966358 0.15492815279933878 0.0 0.0 0.0 0.0 0.0 0.0 0.0 0.0 0.0 0.01269688780802 0.0052859021937059 0.0028698401609604 0.0 0.0 0.0 0.0 0.0 0.0 0.0 0.0 0.0 1.506556769516 0.073568661374129 9.7879836080416 0.0 0.0 0.0 0.0 0.0 0.0 0.0 0.0 0.0
1317065175505239963 0 1317065175505239963 imu_link -0.010737147678135476 0.018402648717755613 0.9877451567333979 0.15461423456339346 0.0 0.0 0.0 0.0 0.0 0.0 0.0 0.0 0.0 -0.021368011794209 0.0055630262063061 0.0064851567750588 0.0 0.0 0.0 0.0 0.0 0.0 0.0 0.0 0.0 1.5578831803721 0.23605874238187 9.6463368527085 0.0 0.0 0.0 0.0 0.0 0.0 0.0 0.0 0.0
1317065175605299949 0 1317065175605299949 imu_link -0.010838946524700646 0.01824912630184436 0.9877975157087544 0.15429048767525247 0.0 0.0 0.0 0.0 0.0 0.0 0.0 0.0 0.0 -0.0019876386394947 0.0014369563204669 0.0063422225466605 0.0 0.0 0.0 0.0 0.0 0.0 0.0 0.0 0.0 1.642024906368 0.12180450427603 9.8319136558261 0.0 0.0 0.0 0.0 0.0 0.0 0.0 0.0 0.0
1317065175705312967 0 1317065175705312967 imu_link -0.010690356717121487 0.018486614450631263 0.9878854763161228 0.15370831806731128 0.0 0.0 0.0 0.0 0.0 0.0 0.0 0.0 0.0 0.0073504450341511 -0.0031788997861678 0.011164786019385 0.0 0.0 0.0 0.0 0.0 0.0 0.0 0.0 0.0 1.5743417270283 -0.1564523265113 9.8409469418828 0.0 0.0 0.0 0.0 0.0 0.0 0.0 0.0 0.0
1317065175815227985 0 1317065175815227985 imu_link -0.010244733951275306 0.019472540130873812 0.9879717080711112 0.15306132646155196 0.0 0.0 0.0 0.0 0.0 0.0 0.0 0.0 0.0 0.016029538094105 -0.0059850740736937 0.012793062848782 0.0 0.0 0.0 0.0 0.0 0.0 0.0 0.0 0.0 1.5407146873576 0.31620534669723 9.3557928781089 0.0 0.0 0.0 0.0 0.0 0.0 0.0 0.0 0.0
1317065175915273904 0 1317065175915273904 imu_link -0.009103649832647533 0.018578818551063653 0.988065050287423 0.15264143428795354 0.0 0.0 0.0 0.0 0.0 0.0 0.0 0.0 0.0 -0.0091354086766163 -0.024213311428543 0.0097535376646409 0.0 0.0 0.0 0.0 0.0 0.0 0.0 0.0 0.0 1.6086749289998 0.62782630294984 9.6407371413061 0.0 0.0 0.0 0.0 0.0 0.0 0.0 0.0 0.0
1317065176015239000 0 1317065176015239000 imu_link -0.009260430764763046 0.018155632354554332 0.9881258606759713 0.15228887319574072 0.0 0.0 0.0 0.0 0.0 0.0 0.0 0.0 0.0 0.002886489344185 0.0018318852983832 0.007475282602137 0.0 0.0 0.0 0.0 0.0 0.0 0.0 0.0 0.0 1.3930412747312 0.13009379691269 10.054300006872 0.0 0.0 0.0 0.0 0.0 0.0 0.0 0.0 0.0
1317065176125282049 0 1317065176125282049 imu_link -0.009257599583939697 0.01784926564428063 0.9881697510868204 0.15204026967522402 0.0 0.0 0.0 0.0 0.0 0.0 0.0 0.0 0.0 0.00047056092722133 -0.0017159520452263 0.0049434725926809 0.0 0.0 0.0 0.0 0.0 0.0 0.0 0.0 0.0 1.5964024522762 0.17456515733691 9.7453882379818 0.0 0.0 0.0 0.0 0.0 0.0 0.0 0.0 0.0
1317065176225378990 0 1317065176225378990 imu_link -0.009614901499704006 0.018270106101550387 0.9881776427198139 0.1519167644498152 0.0 0.0 0.0 0.0 0.0 0.0 0.0 0.0 0.0 0.0054756158528557 0.0027662549733111 0.0033710750056286 0.0 0.0 0.0 0.0 0.0 0.0 0.0 0.0 0.0 1.4870438104048 -0.056538689446422 10.00031242388 0.0 0.0 0.0 0.0 0.0 0.0 0.0 0.0 0.0
1317065176325263023 0 1317065176325263023 imu_link -0.010096302278670172 0.018929902962586193 0.9881776760694769 0.15180449259509013 0.0 0.0 0.0 0.0 0.0 0.0 0.0 0.0 0.0 0.010715569419603 0.006376346167959 0.0029635297416353 0.0 0.0 0.0 0.0 0.0 0.0 0.0 0.0 0.0 1.3207878596066 0.0058649737884116 9.8207627457007 0.0 0.0 0.0 0.0 0.0 0.0 0.0 0.0 0.0
1317065176435549974 0 1317065176435549974 imu_link -0.010639928202229417 0.018804360286277765 0.9882126505160789 0.1515550900565913 0.0 0.0 0.0 0.0 0.0 0.0 0.0 0.0 0.0 -0.0029196269685162 0.0090229538104517 0.0058871568153676 0.0 0.0 0.0 0.0 0.0 0.0 0.0 0.0 0.0 1.1357461729317 0.10399926482402 9.6492340608146 0.0 0.0 0.0 0.0 0.0 0.0 0.0 0.0 0.0
1317065176535293102 0 1317065176535293102 imu_link -0.010993491663130414 0.018458206444267156 0.9882342390218466 0.15143159043219864 0.0 0.0 0.0 0.0 0.0 0.0 0.0 0.0 0.0 -0.0083424147157474 0.0056736517187744 0.0034377235368128 0.0 0.0 0.0 0.0 0.0 0.0 0.0 0.0 0.0 1.0055068626244 0.043278111496559 9.7579778709922 0.0 0.0 0.0 0.0 0.0 0.0 0.0 0.0 0.0
1317065176635516881 0 1317065176635516881 imu_link -0.011237068066009666 0.017905931739229008 0.9882626747071784 0.15129438750476965 0.0 0.0 0.0 0.0 0.0 0.0 0.0 0.0 0.0 -0.010730276947856 0.0018795609077274 0.0040982169489078 0.0 0.0 0.0 0.0 0.0 0.0 0.0 0.0 0.0 1.0302626437932 0.0002346333213676 9.7289921257823 0.0 0.0 0.0 0.0 0.0 0.0 0.0 0.0 0.0
1317065176745313882 0 1317065176745313882 imu_link -0.010760084226633762 0.017468154659763632 0.988327266904504 0.15095793338970792 0.0 0.0 0.0 0.0 0.0 0.0 0.0 0.0 0.0 -0.0076591219776587 -0.008557361733861 0.0064476205799162 0.0 0.0 0.0 0.0 0.0 0.0 0.0 0.0 0.0 1.0804419240939 0.0088196298639328 9.7518196076753 0.0 0.0 0.0 0.0 0.0 0.0 0.0 0.0 0.0
1317065176845309019 0 1317065176845309019 imu_link -0.010187982671498223 0.017713535348886866 0.9883851799709664 0.1505894142637167 0.0 0.0 0.0 0.0 0.0 0.0 0.0 0.0 0.0 0.0013262360391333 -0.010271388369785 0.0084758464857835 0.0 0.0 0.0 0.0 0.0 0.0 0.0 0.0 0.0 1.2424447988095 -0.091060078533086 9.8221799006781 0.0 0.0 0.0 0.0 0.0 0.0 0.0 0.0 0.0
1317065176955286979 0 1317065176955286979 imu_link -0.010334416877818145 0.017768805749732688 0.9884912967470624 0.1498746997506072 0.0 0.0 0.0 0.0 0.0 0.0 0.0 0.0 0.0 0.0036951944515144 -0.00053638223825387 0.01223480476131 0.0 0.0 0.0 0.0 0.0 0.0 0.0 0.0 0.0 1.3174771846797 0.059550108146862 10.041090204143 0.0 0.0 0.0 0.0 0.0 0.0 0.0 0.0 0.0
1317065177055309057 0 1317065177055309057 imu_link -0.011140722753607701 0.0176649855964916 0.9885569847361562 0.1493951823512464 0.0 0.0 0.0 0.0 0.0 0.0 0.0 0.0 0.0 -0.0051917069551753 0.012929218936871 0.011881890113502 0.0 0.0 0.0 0.0 0.0 0.0 0.0 0.0 0.0 1.2152544396627 -0.17989566159133 9.9789909748987 0.0 0.0 0.0 0.0 0.0 0.0 0.0 0.0 0.0
1317065177155520915 0 1317065177155520915 imu_link -0.011422928479582433 0.019354643164136535 0.9886009051639464 0.14887298210879346 0.0 0.0 0.0 0.0 0.0 0.0 0.0 0.0 0.0 0.023945716059795 0.012301344045496 0.010840709602139 0.0 0.0 0.0 0.0 0.0 0.0 0.0 0.0 0.0 1.0498091529458 0.13711437948913 9.6850348730495 0.0 0.0 0.0 0.0 0.0 0.0 0.0 0.0 0.0
1317065177255273103 0 1317065177255273103 imu_link -0.011464082980846235 0.019062519147615403 0.9887122257973177 0.14816656074860046 0.0 0.0 0.0 0.0 0.0 0.0 0.0 0.0 0.0 -0.0057432422727841 0.0054271997949509 0.014205398153971 0.0 0.0 0.0 0.0 0.0 0.0 0.0 0.0 0.0 1.2644668586706 0.48731899534679 9.4366395583939 0.0 0.0 0.0 0.0 0.0 0.0 0.0 0.0 0.0
1317065177365295886 0 1317065177365295886 imu_link -0.012020970174085837 0.018365883756099027 0.9888148458140776 0.14752420576845365 0.0 0.0 0.0 0.0 0.0 0.0 0.0 0.0 0.0 -0.012596783923278 0.0051076449512709 0.013536491905826 0.0 0.0 0.0 0.0 0.0 0.0 0.0 0.0 0.0 0.98050001170265 0.37995645007931 9.7675614327061 0.0 0.0 0.0 0.0 0.0 0.0 0.0 0.0 0.0
1317065177465282917 0 1317065177465282917 imu_link -0.011325916924708043 0.019230453067657173 0.9888782690220042 0.1470431308721086 0.0 0.0 0.0 0.0 0.0 0.0 0.0 0.0 0.0 0.013935446587882 -0.011887457982611 0.010388870310122 0.0 0.0 0.0 0.0 0.0 0.0 0.0 0.0 0.0 0.88395078017931 -0.14753329764326 9.8231538784531 0.0 0.0 0.0 0.0 0.0 0.0 0.0 0.0 0.0
1317065177575339078 0 1317065177575339078 imu_link -0.007864861870032977 0.019148313727850173 0.9889925705802446 0.14651000432129258 0.0 0.0 0.0 0.0 0.0 0.0 0.0 0.0 0.0 0.007113029029104 -0.056726370246079 0.0080642919624695 0.0 0.0 0.0 0.0 0.0 0.0 0.0 0.0 0.0 1.0733948402886 0.26875748345642 8.5688058930581 0.0 0.0 0.0 0.0 0.0 0.0 0.0 0.0 0.0
1317065177675425052 0 1317065177675425052 imu_link -0.0028399058305212796 0.019365439018298465 0.9890355562907633 0.1463748034981512 0.0 0.0 0.0 0.0 0.0 0.0 0.0 0.0 0.0 0.012916277598249 -0.08256720867138 0.0027502727647873 0.0 0.0 0.0 0.0 0.0 0.0 0.0 0.0 0.0 1.141768522264 0.013585322726963 10.456127031744 0.0 0.0 0.0 0.0 0.0 0.0 0.0 0.0 0.0
1317065177775346040 0 1317065177775346040 imu_link -0.0008990325869532283 0.01832515227025395 0.9891448340449898 0.14579395672245515 0.0 0.0 0.0 0.0 0.0 0.0 0.0 0.0 0.0 -0.010049474305089 -0.042627815428733 0.010452248092253 0.0 0.0 0.0 0.0 0.0 0.0 0.0 0.0 0.0 1.3581576414096 0.058539474895453 11.190136707928 0.0 0.0 0.0 0.0 0.0 0.0 0.0 0.0 0.0
1317065177885379076 0 1317065177885379076 imu_link -0.0030395610381662125 0.01836121522708674 0.9891779441136432 0.14553563729611357 0.0 0.0 0.0 0.0 0.0 0.0 0.0 0.0 0.0 -0.0031871589581218 0.027677172356304 0.0061110197282251 0.0 0.0 0.0 0.0 0.0 0.0 0.0 0.0 0.0 0.97782411353143 -0.23375411041791 9.8831325949828 0.0 0.0 0.0 0.0 0.0 0.0 0.0 0.0 0.0
1317065177985349893 0 1317065177985349893 imu_link -0.004521258305904238 0.0182115538274249 0.9892126326732255 0.14527995350435835 0.0 0.0 0.0 0.0 0.0 0.0 0.0 0.0 0.0 -0.012538338135545 0.026333342909793 0.0056881619274885 0.0 0.0 0.0 0.0 0.0 0.0 0.0 0.0 0.0 0.86394350146727 0.20137244697334 9.6438559169055 0.0 0.0 0.0 0.0 0.0 0.0 0.0 0.0 0.0
1317065178085369110 0 1317065178085369110 imu_link -0.0061713282708280425 0.01683339332618056 0.9892126585731802 0.14538523891743876 0.0 0.0 0.0 0.0 0.0 0.0 0.0 0.0 0.0 -0.033065075469978 0.028143486255886 -0.00060198662864396 0.0 0.0 0.0 0.0 0.0 0.0 0.0 0.0 0.0 0.89828475969097 0.11942070750061 9.2784353346154 0.0 0.0 0.0 0.0 0.0 0.0 0.0 0.0 0.0
1317065178195590019 0 1317065178195590019 imu_link -0.005820687665119078 0.015663307566978014 0.9891901093144572 0.1456835887312635 0.0 0.0 0.0 0.0 0.0 0.0 0.0 0.0 0.0 -0.023065724396438 -0.0060836755935978 -0.0055444735592088 0.0 0.0 0.0 0.0 0.0 0.0 0.0 0.0 0.0 0.80950630488777 -0.13042713663713 9.502008690954 0.0 0.0 0.0 0.0 0.0 0.0 0.0 0.0 0.0
1317065178295381069 0 1317065178295381069 imu_link -0.004619773820438137 0.014153299844434884 0.9890883511645101 0.14656935349530767 0.0 0.0 0.0 0.0 0.0 0.0 0.0 0.0 0.0 -0.028937968724861 -0.019113548226276 -0.01512550800408 0.0 0.0 0.0 0.0 0.0 0.0 0.0 0.0 0.0 0.81377712339772 -0.21117820163 9.4686609100137 0.0 0.0 0.0 0.0 0.0 0.0 0.0 0.0 0.0
1317065178395358085 0 1317065178395358085 imu_link -0.0026444505706411884 0.013633980653829413 0.9889797020053823 0.1473983394548783 0.0 0.0 0.0 0.0 0.0 0.0 0.0 0.0 0.0 -0.0063574538463857 -0.02855740068203 -0.017046247825358 0.0 0.0 0.0 0.0 0.0 0.0 0.0 0.0 0.0 1.0126228877175 -0.35875430742937 10.063075890951 0.0 0.0 0.0 0.0 0.0 0.0 0.0 0.0 0.0
1317065178505386114 0 1317065178505386114 imu_link -0.0026071277159734475 0.014751953892416052 0.9887954052639101 0.14852349736795376 0.0 0.0 0.0 0.0 0.0 0.0 0.0 0.0 0.0 0.012956251950434 0.0060568970041572 -0.019140702956646 0.0 0.0 0.0 0.0 0.0 0.0 0.0 0.0 0.0 1.1078133770411 -0.36182789711395 10.500102198409 0.0 0.0 0.0 0.0 0.0 0.0 0.0 0.0 0.0
1317065178605428934 0 1317065178605428934 imu_link -0.005003292084795096 0.015158452589105045 0.9886523590976055 0.14937101872236624 0.0 0.0 0.0 0.0 0.0 0.0 0.0 0.0 0.0 0.0025099204645711 0.037670822593782 -0.017396943937301 0.0 0.0 0.0 0.0 0.0 0.0 0.0 0.0 0.0 0.97686886704811 -0.090803753298225 9.787410406161 0.0 0.0 0.0 0.0 0.0 0.0 0.0 0.0 0.0
1317065178705447912 0 1317065178705447912 imu_link -0.0056515882155323185 0.015765895004886003 0.9885244163686262 0.1501298582840998 0.0 0.0 0.0 0.0 0.0 0.0 0.0 0.0 0.0 0.0068008636706755 0.013676978519305 -0.014181811366186 0.0 0.0 0.0 0.0 0.0 0.0 0.0 0.0 0.0 0.75785000559257 -0.29638761596588 9.1960424314838 0.0 0.0 0.0 0.0 0.0 0.0 0.0 0.0 0.0
1317065178815407037 0 1317065178815407037 imu_link -0.004125096614060695 0.01619962812063363 0.9884516209319342 0.15061191421567466 0.0 0.0 0.0 0.0 0.0 0.0 0.0 0.0 0.0 0.011073054098962 -0.023755453215737 -0.0098422436469507 0.0 0.0 0.0 0.0 0.0 0.0 0.0 0.0 0.0 0.80618107042584 -0.058820955561682 9.3020974412994 0.0 0.0 0.0 0.0 0.0 0.0 0.0 0.0 0.0
1317065178915416002 0 1317065178915416002 imu_link -0.00242208359959361 0.01542058687938323 0.9884266615222274 0.1508942470850237 0.0 0.0 0.0 0.0 0.0 0.0 0.0 0.0 0.0 -0.0077261256231532 -0.028405197770075 -0.0053586858301656 0.0 0.0 0.0 0.0 0.0 0.0 0.0 0.0 0.0 0.92941739543863 0.090040210746438 10.186973156812 0.0 0.0 0.0 0.0 0.0 0.0 0.0 0.0 0.0
1317065179015460014 0 1317065179015460014 imu_link -0.00301542656852428 0.014577849232379021 0.9883985091920362 0.1511515151803914 0.0 0.0 0.0 0.0 0.0 0.0 0.0 0.0 0.0 -0.012431104039769 0.007979980448751 -0.0046556362523159 0.0 0.0 0.0 0.0 0.0 0.0 0.0 0.0 0.0 1.0562801929283 0.07597087361353 9.9762182284364 0.0 0.0 0.0 0.0 0.0 0.0 0.0 0.0 0.0
1317065179125377893 0 1317065179125377893 imu_link -0.004908194302380703 0.014307711489895342 0.9883903168683045 0.15118128370133774 0.0 0.0 0.0 0.0 0.0 0.0 0.0 0.0 0.0 -0.0089651947874092 0.033798449380919 -0.00048637861411344 0.0 0.0 0.0 0.0 0.0 0.0 0.0 0.0 0.0 0.89721359275913 0.099791401351352 10.106140570212 0.0 0.0 0.0 0.0 0.0 0.0 0.0 0.0 0.0
1317065179225553035 0 1317065179225553035 imu_link -0.005702849063354228 0.014889416440083117 0.9883544875300163 0.1513313905636005 0.0 0.0 0.0 0.0 0.0 0.0 0.0 0.0 0.0 0.0074539286066409 0.015999472926856 -0.0017420081729256 0.0 0.0 0.0 0.0 0.0 0.0 0.0 0.0 0.0 0.78907805422952 -0.21310224857443 9.0832387136695 0.0 0.0 0.0 0.0 0.0 0.0 0.0 0.0 0.0
1317065179325390100 0 1317065179325390100 imu_link -0.0054054714163479815 0.016378414529626222 0.9883305461186945 0.1513448381180727 0.0 0.0 0.0 0.0 0.0 0.0 0.0 0.0 0.0 0.026696609959561 0.0021415763701784 -0.00052540254079307 0.0 0.0 0.0 0.0 0.0 0.0 0.0 0.0 0.0 0.8666848457728 -0.13501493386602 9.5476627565885 0.0 0.0 0.0 0.0 0.0 0.0 0.0 0.0 0.0
1317065179435628890 0 1317065179435628890 imu_link -0.006260900308394962 0.017874871608049785 0.9883346870053632 0.1511153088020373 0.0 0.0 0.0 0.0 0.0 0.0 0.0 0.0 0.0 0.024775078418964 0.021559826722227 0.0050367947162989 0.0 0.0 0.0 0.0 0.0 0.0 0.0 0.0 0.0 0.9380964083472 -0.16876166738722 10.029487896791 0.0 0.0 0.0 0.0 0.0 0.0 0.0 0.0 0.0
1317065179535402059 0 1317065179535402059 imu_link -0.006266127180985863 0.020214212277724283 0.9883803070365604 0.15052072925167867 0.0 0.0 0.0 0.0 0.0 0.0 0.0 0.0 0.0 0.03630453830845 0.0032092796006172 0.012260155227721 0.0 0.0 0.0 0.0 0.0 0.0 0.0 0.0 0.0 0.69219687383719 0.037425977658488 9.2392863342356 0.0 0.0 0.0 0.0 0.0 0.0 0.0 0.0 0.0
1317065179645637035 0 1317065179645637035 imu_link -0.005053600254745583 0.018702416795701962 0.9885902326592005 0.14937882253282375 0.0 0.0 0.0 0.0 0.0 0.0 0.0 0.0 0.0 -0.017481616732954 -0.02436898797917 0.018775034775885 0.0 0.0 0.0 0.0 0.0 0.0 0.0 0.0 0.0 0.61692619905661 0.6263236516833 9.6663919931198 0.0 0.0 0.0 0.0 0.0 0.0 0.0 0.0 0.0
1317065179745479106 0 1317065179745479106 imu_link -0.003857369851766515 0.017079998379402543 0.9887487567379108 0.14855736401276665 0.0 0.0 0.0 0.0 0.0 0.0 0.0 0.0 0.0 -0.03126233886885 -0.024620376006042 0.017489517397806 0.0 0.0 0.0 0.0 0.0 0.0 0.0 0.0 0.0 0.77371083772602 0.58038400893625 10.124154236789 0.0 0.0 0.0 0.0 0.0 0.0 0.0 0.0 0.0
1317065179845468997 0 1317065179845468997 imu_link -0.00459186555674332 0.010976937853141275 0.9889841846873114 0.14754221105992418 0.0 0.0 0.0 0.0 0.0 0.0 0.0 0.0 0.0 -0.10580394115709 -0.0090039496466912 0.019797768449907 0.0 0.0 0.0 0.0 0.0 0.0 0.0 0.0 0.0 0.37163357797837 0.67592781372991 10.532774016552 0.0 0.0 0.0 0.0 0.0 0.0 0.0 0.0 0.0
1317065179955452919 0 1317065179955452919 imu_link -0.003646276107510865 0.007262142613273621 0.9891505141099433 0.1466806953598423 0.0 0.0 0.0 0.0 0.0 0.0 0.0 0.0 0.0 -0.06034164053369 -0.030775045692768 0.018558574019396 0.0 0.0 0.0 0.0 0.0 0.0 0.0 0.0 0.0 0.23165554078637 0.0091418385401168 9.276673220034 0.0 0.0 0.0 0.0 0.0 0.0 0.0 0.0 0.0
1317065180055443048 0 1317065180055443048 imu_link -0.0014761301350030365 0.004328014533616807 0.989263010178921 0.1460745906095966 0.0 0.0 0.0 0.0 0.0 0.0 0.0 0.0 0.0 -0.055421892567196 -0.040654328206084 0.012714140421214 0.0 0.0 0.0 0.0 0.0 0.0 0.0 0.0 0.0 0.61673917510961 0.20748739492525 10.694212566219 0.0 0.0 0.0 0.0 0.0 0.0 0.0 0.0 0.0
1317065180155632019 0 1317065180155632019 imu_link -0.0034250162371933586 0.0032162990186391936 0.9894303675856364 0.14493264774974007 0.0 0.0 0.0 0.0 0.0 0.0 0.0 0.0 0.0 -0.023448632008237 0.022123083240918 0.023682622649623 0.0 0.0 0.0 0.0 0.0 0.0 0.0 0.0 0.0 0.54328200197192 -0.26920572688813 11.067354702605 0.0 0.0 0.0 0.0 0.0 0.0 0.0 0.0 0.0
1317065180255579948 0 1317065180255579948 imu_link -0.006185491532820312 0.009000734279656463 0.9894999777171178 0.14411981326225612 0.0 0.0 0.0 0.0 0.0 0.0 0.0 0.0 0.0 0.095294704512231 0.057703020651133 0.017983109944608 0.0 0.0 0.0 0.0 0.0 0.0 0.0 0.0 0.0 0.40532630530104 -0.66271971563123 9.5199549012221 0.0 0.0 0.0 0.0 0.0 0.0 0.0 0.0 0.0
1317065180365478038 0 1317065180365478038 imu_link -0.0065288739111642805 0.014770461318786905 0.9895858135682561 0.1430353972355622 0.0 0.0 0.0 0.0 0.0 0.0 0.0 0.0 0.0 0.089742376902749 0.018525170651407 0.017740090912886 0.0 0.0 0.0 0.0 0.0 0.0 0.0 0.0 0.0 0.19095294800511 0.46492538893082 9.0671508866517 0.0 0.0 0.0 0.0 0.0 0.0 0.0 0.0 0.0
1317065180465603113 0 1317065180465603113 imu_link -0.005139208383769446 0.017860313029625742 0.9896518647915267 0.1422806531835084 0.0 0.0 0.0 0.0 0.0 0.0 0.0 0.0 0.0 0.078434790777931 -0.019431410717898 0.01692676961149 0.0 0.0 0.0 0.0 0.0 0.0 0.0 0.0 0.0 0.22456787236189 -0.047003532646665 9.1238031653812 0.0 0.0 0.0 0.0 0.0 0.0 0.0 0.0 0.0
1317065180565469980 0 1317065180565469980 imu_link -0.0035672684354337986 0.020636543748260697 0.9896728667629426 0.14180629200164108 0.0 0.0 0.0 0.0 0.0 0.0 0.0 0.0 0.0 0.052859250587683 -0.019364280647354 0.011020682997771 0.0 0.0 0.0 0.0 0.0 0.0 0.0 0.0 0.0 0.55283907903738 0.74364398914524 10.176686763103 0.0 0.0 0.0 0.0 0.0 0.0 0.0 0.0 0.0
1317065180675642967 0 1317065180675642967 imu_link -0.005419521335812721 0.01668659721671207 0.9898151726483354 0.14127317599942268 0.0 0.0 0.0 0.0 0.0 0.0 0.0 0.0 0.0 -0.061917543575462 0.018487586813566 0.011411139454534 0.0 0.0 0.0 0.0 0.0 0.0 0.0 0.0 0.0 0.41504955431666 1.145000952563 10.087828535846 0.0 0.0 0.0 0.0 0.0 0.0 0.0 0.0 0.0
1317065180775458097 0 1317065180775458097 imu_link -0.0064754006373108405 0.011778387280841247 0.9898687067972929 0.1413480883602748 0.0 0.0 0.0 0.0 0.0 0.0 0.0 0.0 0.0 -0.079072008010898 0.0039076568695524 0.0017176902752113 0.0 0.0 0.0 0.0 0.0 0.0 0.0 0.0 0.0 0.42981715993132 0.24992173634098 9.3375807878819 0.0 0.0 0.0 0.0 0.0 0.0 0.0 0.0 0.0
1317065180885498046 0 1317065180885498046 imu_link -0.005284937959736118 0.007657634209711611 0.9898790814170526 0.14160803028784774 0.0 0.0 0.0 0.0 0.0 0.0 0.0 0.0 0.0 -0.065038478538526 -0.030617205639264 -0.0044433816345649 0.0 0.0 0.0 0.0 0.0 0.0 0.0 0.0 0.0 0.36716070289566 0.13495559416154 10.042650849738 0.0 0.0 0.0 0.0 0.0 0.0 0.0 0.0 0.0
1317065180985481977 0 1317065180985481977 imu_link -0.006284277866160878 0.0037401385983169147 0.9899017839821665 0.14156615868169437 0.0 0.0 0.0 0.0 0.0 0.0 0.0 0.0 0.0 -0.073033279809624 0.0073594877513255 0.0027278645263727 0.0 0.0 0.0 0.0 0.0 0.0 0.0 0.0 0.0 0.5053665145346 -0.38147034621245 10.662363938673 0.0 0.0 0.0 0.0 0.0 0.0 0.0 0.0 0.0
1317065181085469007 0 1317065181085469007 imu_link -0.008058573325026618 0.001917532844022953 0.9899808427059725 0.14095855255687664 0.0 0.0 0.0 0.0 0.0 0.0 0.0 0.0 0.0 -0.037407230521129 0.024074385840855 0.011772170688831 0.0 0.0 0.0 0.0 0.0 0.0 0.0 0.0 0.0 0.5539724644761 -0.72533398469701 9.9562450098442 0.0 0.0 0.0 0.0 0.0 0.0 0.0 0.0 0.0
1317065181195590972 0 1317065181195590972 imu_link -0.008929890946870387 0.003214479116829727 0.9900406968974648 0.14046117847457712 0.0 0.0 0.0 0.0 0.0 0.0 0.0 0.0 0.0 0.010738990978502 0.015250739762129 0.0085668682784332 0.0 0.0 0.0 0.0 0.0 0.0 0.0 0.0 0.0 0.4662754383586 -0.25347150782356 9.8141064069124 0.0 0.0 0.0 0.0 0.0 0.0 0.0 0.0 0.0
1317065181295511007 0 1317065181295511007 imu_link -0.008635472593247321 0.004048924794558794 0.9900997780699041 0.1400409378968378 0.0 0.0 0.0 0.0 0.0 0.0 0.0 0.0 0.0 0.013590538783973 -0.0032517759544839 0.0083887117788343 0.0 0.0 0.0 0.0 0.0 0.0 0.0 0.0 0.0 0.46330089181681 0.27813623185088 9.1504969698744 0.0 0.0 0.0 0.0 0.0 0.0 0.0 0.0 0.0
1317065181395488977 0 1317065181395488977 imu_link -0.006635119223192445 0.005794107199310635 0.9901691792778732 0.139597277634057 0.0 0.0 0.0 0.0 0.0 0.0 0.0 0.0 0.0 0.035997524294214 -0.025151103046748 0.010772463502049 0.0 0.0 0.0 0.0 0.0 0.0 0.0 0.0 0.0 0.49373294815687 -0.39004334918482 10.031629057752 0.0 0.0 0.0 0.0 0.0 0.0 0.0 0.0 0.0
1317065181505522966 0 1317065181505522966 imu_link -0.005554509989186037 0.00790857996287043 0.9903983295333096 0.1379048608257905 0.0 0.0 0.0 0.0 0.0 0.0 0.0 0.0 0.0 0.034254151221525 -0.016803789137995 0.029623345722477 0.0 0.0 0.0 0.0 0.0 0.0 0.0 0.0 0.0 0.55434887149887 -0.052397496609798 10.250347060404 0.0 0.0 0.0 0.0 0.0 0.0 0.0 0.0 0.0
1317065181605560064 0 1317065181605560064 imu_link -0.005350168066000099 0.010884132800673185 0.9906009101921287 0.13624517636000574 0.0 0.0 0.0 0.0 0.0 0.0 0.0 0.0 0.0 0.053269477776473 -0.0018636129793213 0.031653541581728 0.0 0.0 0.0 0.0 0.0 0.0 0.0 0.0 0.0 0.57315963719668 0.28538543402075 9.8050073989935 0.0 0.0 0.0 0.0 0.0 0.0 0.0 0.0 0.0
1317065181705605983 0 1317065181705605983 imu_link -0.005313582813932388 0.013075095900253679 0.990808669709109 0.13453247836171198 0.0 0.0 0.0 0.0 0.0 0.0 0.0 0.0 0.0 0.039451803251955 0.0033779513496273 0.03426186953218 0.0 0.0 0.0 0.0 0.0 0.0 0.0 0.0 0.0 0.63590234734122 0.56349410228474 9.7868667702581 0.0 0.0 0.0 0.0 0.0 0.0 0.0 0.0 0.0
1317065181815551042 0 1317065181815551042 imu_link -0.006917925340931965 0.014012988754988742 0.9910520337072168 0.13255808138291433 0.0 0.0 0.0 0.0 0.0 0.0 0.0 0.0 0.0 0.014396232692508 0.02737615638029 0.037531393175744 0.0 0.0 0.0 0.0 0.0 0.0 0.0 0.0 0.0 0.74286731027405 0.49431635963187 9.8167211403885 0.0 0.0 0.0 0.0 0.0 0.0 0.0 0.0 0.0
1317065181915538072 0 1317065181915538072 imu_link -0.008990773935994786 0.014306055461885979 0.9912879467645125 0.13062430616294252 0.0 0.0 0.0 0.0 0.0 0.0 0.0 0.0 0.0 0.0030472409681264 0.037216816551642 0.039152997104382 0.0 0.0 0.0 0.0 0.0 0.0 0.0 0.0 0.0 0.65233568288379 0.44139580076595 9.3094869603755 0.0 0.0 0.0 0.0 0.0 0.0 0.0 0.0 0.0
1317065182015515089 0 1317065182015515089 imu_link -0.010601519261545143 0.014170559003881701 0.991512264827947 0.12880307349834336 0.0 0.0 0.0 0.0 0.0 0.0 0.0 0.0 0.0 -0.0093007293352981 0.033315468271322 0.037216511201285 0.0 0.0 0.0 0.0 0.0 0.0 0.0 0.0 0.0 0.60738900842359 0.67137500681736 9.2497065672925 0.0 0.0 0.0 0.0 0.0 0.0 0.0 0.0 0.0
1317065182125495910 0 1317065182125495910 imu_link -0.010093524909004484 0.012583934547928829 0.9917280792979358 0.1273388474827381 0.0 0.0 0.0 0.0 0.0 0.0 0.0 0.0 0.0 -0.021778188289445 -0.011134855386832 0.026905956989119 0.0 0.0 0.0 0.0 0.0 0.0 0.0 0.0 0.0 0.72749582277074 0.27435205643097 9.2718699975695 0.0 0.0 0.0 0.0 0.0 0.0 0.0 0.0 0.0
1317065182225761890 0 1317065182225761890 imu_link -0.008410860195780077 0.011999603594412376 0.9918405129401235 0.1266398982746612 0.0 0.0 0.0 0.0 0.0 0.0 0.0 0.0 0.0 -0.011530451196971 -0.030036474009348 0.016149227651011 0.0 0.0 0.0 0.0 0.0 0.0 0.0 0.0 0.0 0.7346553780254 0.2115069540554 9.9197388646619 0.0 0.0 0.0 0.0 0.0 0.0 0.0 0.0 0.0
1317065182325584888 0 1317065182325584888 imu_link -0.00687545095468697 0.011078732023397691 0.9919178446064647 0.1262100607011532 0.0 0.0 0.0 0.0 0.0 0.0 0.0 0.0 0.0 -0.010616541386829 -0.028881587314038 0.0094710046360525 0.0 0.0 0.0 0.0 0.0 0.0 0.0 0.0 0.0 0.87495882730732 0.075485473717855 10.380270859164 0.0 0.0 0.0 0.0 0.0 0.0 0.0 0.0 0.0
1317065182435612916 0 1317065182435612916 imu_link -0.006306635166068569 0.012232146173167766 0.9919718091317524 0.12570811764066095 0.0 0.0 0.0 0.0 0.0 0.0 0.0 0.0 0.0 0.019177600880965 -0.0083300538835453 0.0098042502588581 0.0 0.0 0.0 0.0 0.0 0.0 0.0 0.0 0.0 0.79189907996441 -0.17757993850492 10.288623211973 0.0 0.0 0.0 0.0 0.0 0.0 0.0 0.0 0.0
1317065182535628080 0 1317065182535628080 imu_link -0.00593277433953231 0.013093806706249296 0.9920233195678929 0.12523213584409568 0.0 0.0 0.0 0.0 0.0 0.0 0.0 0.0 0.0 0.01708933610375 -0.0056003704793756 0.0098886580242171 0.0 0.0 0.0 0.0 0.0 0.0 0.0 0.0 0.0 0.73960127015166 0.12010496512909 9.8746986566583 0.0 0.0 0.0 0.0 0.0 0.0 0.0 0.0 0.0
1317065182635631084 0 1317065182635631084 imu_link -0.005177787149070181 0.014146566609495427 0.9920668550182699 0.1248055301161015 0.0 0.0 0.0 0.0 0.0 0.0 0.0 0.0 0.0 0.0218524073808 -0.011118603188431 0.0083159260692337 0.0 0.0 0.0 0.0 0.0 0.0 0.0 0.0 0.0 0.8111226546767 0.10146475915361 9.8293356605715 0.0 0.0 0.0 0.0 0.0 0.0 0.0 0.0 0.0
1317065182745644092 0 1317065182745644092 imu_link -0.005045306704491841 0.014376221385463092 0.9921118513368069 0.12442645850456174 0.0 0.0 0.0 0.0 0.0 0.0 0.0 0.0 0.0 0.0074879794200464 -0.0024532186243333 0.0061855748918367 0.0 0.0 0.0 0.0 0.0 0.0 0.0 0.0 0.0 0.85883601806572 0.20347859124935 10.059363354798 0.0 0.0 0.0 0.0 0.0 0.0 0.0 0.0 0.0
1317065182845578908 0 1317065182845578908 imu_link -0.004970585083235309 0.014683984035704437 0.9921223211160097 0.12430999091042796 0.0 0.0 0.0 0.0 0.0 0.0 0.0 0.0 0.0 0.0067140644192852 -0.0028049224716912 0.0041428211506283 0.0 0.0 0.0 0.0 0.0 0.0 0.0 0.0 0.0 0.83330732973166 -0.0075523936313541 9.8802075505794 0.0 0.0 0.0 0.0 0.0 0.0 0.0 0.0 0.0
1317065182955571889 0 1317065182955571889 imu_link -0.0049689197448263035 0.014883751166824609 0.9921383882435112 0.1241579734102543 0.0 0.0 0.0 0.0 0.0 0.0 0.0 0.0 0.0 0.006899247615286 -0.00043245223562273 0.0036391730101269 0.0 0.0 0.0 0.0 0.0 0.0 0.0 0.0 0.0 0.75532689241876 -0.009016290413161 9.8510602229881 0.0 0.0 0.0 0.0 0.0 0.0 0.0 0.0 0.0
1317065183055576086 0 1317065183055576086 imu_link -0.005176522116181651 0.015753420264778956 0.9921520518401705 0.12393280194557718 0.0 0.0 0.0 0.0 0.0 0.0 0.0 0.0 0.0 0.015117738182298 0.0063304160693632 0.0054077367838503 0.0 0.0 0.0 0.0 0.0 0.0 0.0 0.0 0.0 0.83527079104286 -0.01877282635488 9.9172931488892 0.0 0.0 0.0 0.0 0.0 0.0 0.0 0.0 0.0
1317065183155653953 0 1317065183155653953 imu_link -0.006101076904712301 0.016415186809551546 0.9921666069418391 0.12368808581317987 0.0 0.0 0.0 0.0 0.0 0.0 0.0 0.0 0.0 0.015966712644556 0.015532545375692 0.0045862738130421 0.0 0.0 0.0 0.0 0.0 0.0 0.0 0.0 0.0 0.71341080058256 -0.087475377526412 9.9974768548993 0.0 0.0 0.0 0.0 0.0 0.0 0.0 0.0 0.0
1317065183265610933 0 1317065183265610933 imu_link -0.007641529151379165 0.01793998925179449 0.9921477047874617 0.12354228305663566 0.0 0.0 0.0 0.0 0.0 0.0 0.0 0.0 0.0 0.017202756638366 0.023794420394138 0.0039708574724251 0.0 0.0 0.0 0.0 0.0 0.0 0.0 0.0 0.0 0.45875666819578 0.12478356073672 9.2352513144709 0.0 0.0 0.0 0.0 0.0 0.0 0.0 0.0 0.0
1317065183365554094 0 1317065183365554094 imu_link -0.007561882116802034 0.01890713847503319 0.9921257726812389 0.12357908089637226 0.0 0.0 0.0 0.0 0.0 0.0 0.0 0.0 0.0 0.023524697630867 0.0058448743809848 -0.0011083598576298 0.0 0.0 0.0 0.0 0.0 0.0 0.0 0.0 0.0 0.35989049851021 -0.13748602586769 9.5012036579044 0.0 0.0 0.0 0.0 0.0 0.0 0.0 0.0 0.0
1317065183465600013 0 1317065183465600013 imu_link -0.0070120435048586565 0.020424631481780992 0.9920855309440776 0.12369302715241222 0.0 0.0 0.0 0.0 0.0 0.0 0.0 0.0 0.0 0.024319547319115 -0.00099197444138286 -0.0018833110642646 0.0 0.0 0.0 0.0 0.0 0.0 0.0 0.0 0.0 0.32039094941093 0.10151964739848 9.8055831827431 0.0 0.0 0.0 0.0 0.0 0.0 0.0 0.0 0.0
1317065183575598001 0 1317065183575598001 imu_link -0.007188223124274541 0.02034028000333544 0.9920595979336284 0.12390462705431579 0.0 0.0 0.0 0.0 0.0 0.0 0.0 0.0 0.0 0.001845583386638 0.0043730331088383 -0.00338696033348 0.0 0.0 0.0 0.0 0.0 0.0 0.0 0.0 0.0 0.23981605393649 -0.012901784941414 9.9123506243511 0.0 0.0 0.0 0.0 0.0 0.0 0.0 0.0 0.0
1317065183675649881 0 1317065183675649881 imu_link -0.0063891727102396885 0.020308610606159634 0.99204184049253 0.12409563054161074 0.0 0.0 0.0 0.0 0.0 0.0 0.0 0.0 0.0 -0.0011551336452271 -0.013080350650202 -0.0035109045169319 0.0 0.0 0.0 0.0 0.0 0.0 0.0 0.0 0.0 0.26182576091172 0.047268472838399 9.8525848706194 0.0 0.0 0.0 0.0 0.0 0.0 0.0 0.0 0.0
1317065183775621891 0 1317065183775621891 imu_link -0.005514187643010336 0.01931513788846015 0.9920413371379425 0.12430005869890119 0.0 0.0 0.0 0.0 0.0 0.0 0.0 0.0 0.0 -0.012425257954771 -0.019296525498481 -0.0047760151964895 0.0 0.0 0.0 0.0 0.0 0.0 0.0 0.0 0.0 0.37409928982319 0.033488281916371 9.9482196222963 0.0 0.0 0.0 0.0 0.0 0.0 0.0 0.0 0.0
1317065183875613927 0 1317065183875613927 imu_link -0.006046119696855419 0.01883094964790553 0.9920101581978866 0.12459809711297073 0.0 0.0 0.0 0.0 0.0 0.0 0.0 0.0 0.0 -0.011419106947114 0.0053001760497459 -0.0050346973823071 0.0 0.0 0.0 0.0 0.0 0.0 0.0 0.0 0.0 0.33798890673901 -0.15049800499317 9.9490589797895 0.0 0.0 0.0 0.0 0.0 0.0 0.0 0.0 0.0
1317065183985634088 0 1317065183985634088 imu_link -0.006597711679817143 0.018353282493634177 0.9919817062092575 0.1248676169728134 0.0 0.0 0.0 0.0 0.0 0.0 0.0 0.0 0.0 -0.012886790488927 0.010759728909017 -0.003559962815238 0.0 0.0 0.0 0.0 0.0 0.0 0.0 0.0 0.0 0.39942109737409 -0.0085448514971124 9.4332688373184 0.0 0.0 0.0 0.0 0.0 0.0 0.0 0.0 0.0
1317065184085638046 0 1317065184085638046 imu_link -0.006589060181538399 0.018127166764898995 0.991976498986866 0.12494244902658953 0.0 0.0 0.0 0.0 0.0 0.0 0.0 0.0 0.0 -0.00132025780766 0.0062171282158422 -0.0020179777560669 0.0 0.0 0.0 0.0 0.0 0.0 0.0 0.0 0.0 0.47594361612697 -0.10777483657408 9.9096556250551 0.0 0.0 0.0 0.0 0.0 0.0 0.0 0.0 0.0
1317065184195748090 0 1317065184195748090 imu_link -0.008000464641761292 0.01800997250674086 0.9919691565530717 0.12493528686167796 0.0 0.0 0.0 0.0 0.0 0.0 0.0 0.0 0.0 -0.0062797203017408 0.018866570881388 0.00070344621814997 0.0 0.0 0.0 0.0 0.0 0.0 0.0 0.0 0.0 0.38313466680801 0.046083829796033 9.6039184181791 0.0 0.0 0.0 0.0 0.0 0.0 0.0 0.0 0.0
1317065184295631885 0 1317065184295631885 imu_link -0.0068029806922372624 0.017410021787306235 0.991993218305495 0.12490022190121562 0.0 0.0 0.0 0.0 0.0 0.0 0.0 0.0 0.0 -0.0048023427586899 -0.026220652537598 0.0016831366438555 0.0 0.0 0.0 0.0 0.0 0.0 0.0 0.0 0.0 0.23322638487198 -0.044375732774686 9.4008512106234 0.0 0.0 0.0 0.0 0.0 0.0 0.0 0.0 0.0
1317065184395620107 0 1317065184395620107 imu_link -0.004139448439073692 0.01682486275681914 0.9920256945106736 0.12483913805553964 0.0 0.0 0.0 0.0 0.0 0.0 0.0 0.0 0.0 -0.0077600837876022 -0.047204037411731 0.0019419235769656 0.0 0.0 0.0 0.0 0.0 0.0 0.0 0.0 0.0 0.36642167615885 -0.064204218702964 10.2194010537 0.0 0.0 0.0 0.0 0.0 0.0 0.0 0.0 0.0
1317065184505613088 0 1317065184505613088 imu_link -0.0030002933644781874 0.016118684813269838 0.9920873435996621 0.12447445082820642 0.0 0.0 0.0 0.0 0.0 0.0 0.0 0.0 0.0 -0.010829228836688 -0.021424376372046 0.0052937046802794 0.0 0.0 0.0 0.0 0.0 0.0 0.0 0.0 0.0 0.52567020997756 -0.059575907965278 10.640457125778 0.0 0.0 0.0 0.0 0.0 0.0 0.0 0.0 0.0
1317065184605642080 0 1317065184605642080 imu_link -0.004256186004745421 0.016134067037750444 0.9921381127205157 0.12403040775909666 0.0 0.0 0.0 0.0 0.0 0.0 0.0 0.0 0.0 -0.0050608000640864 0.017540635321165 0.0087293764252627 0.0 0.0 0.0 0.0 0.0 0.0 0.0 0.0 0.0 0.49424077774352 0.042197077027054 10.09697130966 0.0 0.0 0.0 0.0 0.0 0.0 0.0 0.0 0.0
1317065184705641984 0 1317065184705641984 imu_link -0.004747567253939487 0.015949154788196314 0.9922008183419403 0.12353388663964086 0.0 0.0 0.0 0.0 0.0 0.0 0.0 0.0 0.0 -0.0080981534421008 0.0050691706691053 0.010058509007022 0.0 0.0 0.0 0.0 0.0 0.0 0.0 0.0 0.0 0.30011657384382 0.16786569475069 9.3526103874667 0.0 0.0 0.0 0.0 0.0 0.0 0.0 0.0 0.0
1317065184815609931 0 1317065184815609931 imu_link -0.002880585797276238 0.015267004462757123 0.9922790184794461 0.12304865007656908 0.0 0.0 0.0 0.0 0.0 0.0 0.0 0.0 0.0 -0.0074425575554005 -0.031805097958122 0.0090929168992026 0.0 0.0 0.0 0.0 0.0 0.0 0.0 0.0 0.0 0.37607277701285 0.09060720806334 9.7186331646518 0.0 0.0 0.0 0.0 0.0 0.0 0.0 0.0 0.0
1317065184915673971 0 1317065184915673971 imu_link -0.001568294138206951 0.014872327932410744 0.9923406208787411 0.12262318895446093 0.0 0.0 0.0 0.0 0.0 0.0 0.0 0.0 0.0 -0.0053191066641605 -0.024567455276457 0.008263099957191 0.0 0.0 0.0 0.0 0.0 0.0 0.0 0.0 0.0 0.50437887695317 0.11649700953885 10.446919723529 0.0 0.0 0.0 0.0 0.0 0.0 0.0 0.0 0.0
1317065185015645980 0 1317065185015645980 imu_link -0.0019250610090413556 0.015289189316990985 0.9923799542232277 0.12224795002798766 0.0 0.0 0.0 0.0 0.0 0.0 0.0 0.0 0.0 0.0046531793665537 0.0043651057167526 0.0074666396531455 0.0 0.0 0.0 0.0 0.0 0.0 0.0 0.0 0.0 0.40148259133336 0.15228434850815 10.073967952453 0.0 0.0 0.0 0.0 0.0 0.0 0.0 0.0 0.0
1317065185125643968 0 1317065185125643968 imu_link -0.0013350922191351091 0.015248137414102622 0.9924467110717735 0.12171786030401133 0.0 0.0 0.0 0.0 0.0 0.0 0.0 0.0 0.0 0.0039541575400689 -0.010350384929054 0.009949155391629 0.0 0.0 0.0 0.0 0.0 0.0 0.0 0.0 0.0 0.38512718956532 -0.01956494948043 9.9003945465205 0.0 0.0 0.0 0.0 0.0 0.0 0.0 0.0 0.0
1317065185225824117 0 1317065185225824117 imu_link -0.0004456693072381222 0.016289086219848852 0.9924798286013563 0.12131882322382181 0.0 0.0 0.0 0.0 0.0 0.0 0.0 0.0 0.0 0.01687383390797 -0.015211620465991 0.0090076341912861 0.0 0.0 0.0 0.0 0.0 0.0 0.0 0.0 0.0 0.48462802659652 0.21401508924605 10.007811559322 0.0 0.0 0.0 0.0 0.0 0.0 0.0 0.0 0.0
1317065185325644016 0 1317065185325644016 imu_link -0.001021833341126392 0.01639043197396589 0.9925274942791614 0.12091105282917233 0.0 0.0 0.0 0.0 0.0 0.0 0.0 0.0 0.0 0.0064722852048962 0.0098972565525543 0.0075231790693785 0.0 0.0 0.0 0.0 0.0 0.0 0.0 0.0 0.0 0.54971040915302 0.12986178750866 10.021151837339 0.0 0.0 0.0 0.0 0.0 0.0 0.0 0.0 0.0
1317065185435631990 0 1317065185435631990 imu_link -0.0034135800124075427 0.016852121494351044 0.99254581984903 0.12065301062491363 0.0 0.0 0.0 0.0 0.0 0.0 0.0 0.0 0.0 -0.0010263677685866 0.03937356705414 0.0061860111903328 0.0 0.0 0.0 0.0 0.0 0.0 0.0 0.0 0.0 0.46415066143357 0.0011775296222384 9.5275057687685 0.0 0.0 0.0 0.0 0.0 0.0 0.0 0.0 0.0
1317065185535715103 0 1317065185535715103 imu_link -0.0044782430164534304 0.01737721371313992 0.992547700750751 0.12052816897908482 0.0 0.0 0.0 0.0 0.0 0.0 0.0 0.0 0.0 0.0043428235903719 0.022617044298614 0.0026428912765849 0.0 0.0 0.0 0.0 0.0 0.0 0.0 0.0 0.0 0.24622988792545 0.056191492103383 8.7941250044673 0.0 0.0 0.0 0.0 0.0 0.0 0.0 0.0 0.0
1317065185635902881 0 1317065185635902881 imu_link -0.0029508901112588206 0.01841784574584644 0.9925468902611712 0.12042734672204682 0.0 0.0 0.0 0.0 0.0 0.0 0.0 0.0 0.0 0.017765687925287 -0.015106690756958 0.0017610485070338 0.0 0.0 0.0 0.0 0.0 0.0 0.0 0.0 0.0 0.3397516312999 0.13747327107561 9.6913667435709 0.0 0.0 0.0 0.0 0.0 0.0 0.0 0.0 0.0
1317065185745659112 0 1317065185745659112 imu_link -0.001010121256992163 0.01818083238329001 0.9925725376761642 0.12028380788783033 0.0 0.0 0.0 0.0 0.0 0.0 0.0 0.0 0.0 0.0054774218810114 -0.032289014811044 0.0024202203530578 0.0 0.0 0.0 0.0 0.0 0.0 0.0 0.0 0.0 0.43081851679112 0.064164544750576 10.14056546549 0.0 0.0 0.0 0.0 0.0 0.0 0.0 0.0 0.0
1317065185845659017 0 1317065185845659017 imu_link -0.0012049103167375585 0.018761926111244012 0.9925760216054579 0.12016396986453999 0.0 0.0 0.0 0.0 0.0 0.0 0.0 0.0 0.0 0.008958439428963 0.0028622531145071 0.0022326834366556 0.0 0.0 0.0 0.0 0.0 0.0 0.0 0.0 0.0 0.48339254953551 0.022067177611454 10.410357389313 0.0 0.0 0.0 0.0 0.0 0.0 0.0 0.0 0.0
1317065185945641994 0 1317065185945641994 imu_link -0.0029633372274173674 0.019398062045693904 0.9925781225956999 0.12001501725094149 0.0 0.0 0.0 0.0 0.0 0.0 0.0 0.0 0.0 0.009203992132251 0.0312209669255 0.0037421275887923 0.0 0.0 0.0 0.0 0.0 0.0 0.0 0.0 0.0 0.34776531018239 0.0072900086777495 9.8053114434445 0.0 0.0 0.0 0.0 0.0 0.0 0.0 0.0 0.0
1317065186055644035 0 1317065186055644035 imu_link -0.004108030010690398 0.02025540273044169 0.9925788692056202 0.11983334742946555 0.0 0.0 0.0 0.0 0.0 0.0 0.0 0.0 0.0 0.013819533300858 0.020192198574121 0.0046409582468255 0.0 0.0 0.0 0.0 0.0 0.0 0.0 0.0 0.0 0.23788401601581 -0.087713147614295 9.2565655838279 0.0 0.0 0.0 0.0 0.0 0.0 0.0 0.0 0.0
1317065186155826091 0 1317065186155826091 imu_link -0.003233451734524205 0.021098710281829445 0.992595774606278 0.11957431767769798 0.0 0.0 0.0 0.0 0.0 0.0 0.0 0.0 0.0 0.0182329345564 -0.013171442920082 0.0051697697404027 0.0 0.0 0.0 0.0 0.0 0.0 0.0 0.0 0.0 0.20681816149019 0.098102174040916 9.6454301523243 0.0 0.0 0.0 0.0 0.0 0.0 0.0 0.0 0.0
1317065186255702018 0 1317065186255702018 imu_link -0.0021255928195720026 0.02096584313609337 0.9926213941414064 0.11940972811931615 0.0 0.0 0.0 0.0 0.0 0.0 0.0 0.0 0.0 0.0040343685151855 -0.021782726408077 0.0020572328513147 0.0 0.0 0.0 0.0 0.0 0.0 0.0 0.0 0.0 0.32658754658531 0.14597126169224 9.9362883637323 0.0 0.0 0.0 0.0 0.0 0.0 0.0 0.0 0.0
1317065186365699052 0 1317065186365699052 imu_link -0.002362768453328133 0.02082303287987189 0.9926261377727633 0.11939082559915064 0.0 0.0 0.0 0.0 0.0 0.0 0.0 0.0 0.0 -0.0035468493377775 0.0030868977434461 0.00085002220606907 0.0 0.0 0.0 0.0 0.0 0.0 0.0 0.0 0.0 0.31404906137094 0.11985385164506 10.174248511658 0.0 0.0 0.0 0.0 0.0 0.0 0.0 0.0 0.0
1317065186465666055 0 1317065186465666055 imu_link -0.0031550342564666926 0.019988084052477404 0.9926645255243947 0.11919589766506267 0.0 0.0 0.0 0.0 0.0 0.0 0.0 0.0 0.0 -0.014662611152781 0.0097575748865025 0.0041838263780013 0.0 0.0 0.0 0.0 0.0 0.0 0.0 0.0 0.0 0.20946004554265 0.11398939978135 9.6446516551241 0.0 0.0 0.0 0.0 0.0 0.0 0.0 0.0 0.0
1317065186565664052 0 1317065186565664052 imu_link -0.003072867521540083 0.019205374552672547 0.9927036610252511 0.11900064058882344 0.0 0.0 0.0 0.0 0.0 0.0 0.0 0.0 0.0 -0.013144012626986 -0.0019487107837524 0.0041916132844463 0.0 0.0 0.0 0.0 0.0 0.0 0.0 0.0 0.0 0.26067610671635 -0.085781456193331 9.6640660195347 0.0 0.0 0.0 0.0 0.0 0.0 0.0 0.0 0.0
1317065186675776958 0 1317065186675776958 imu_link -0.002863059686109571 0.01855683762136563 0.9927203635322431 0.1189694351299487 0.0 0.0 0.0 0.0 0.0 0.0 0.0 0.0 0.0 -0.019085160498949 -0.002877217357314 0.002104054698738 0.0 0.0 0.0 0.0 0.0 0.0 0.0 0.0 0.0 0.26492411215553 0.23043939050639 9.9249574405717 0.0 0.0 0.0 0.0 0.0 0.0 0.0 0.0 0.0
1317065186775732040 0 1317065186775732040 imu_link -0.004070960138402573 0.017477080797523338 0.9927694074367901 0.11868817374933732 0.0 0.0 0.0 0.0 0.0 0.0 0.0 0.0 0.0 -0.020311336601084 0.01959719113998 0.0060193069363727 0.0 0.0 0.0 0.0 0.0 0.0 0.0 0.0 0.0 0.23559755563001 0.0092212347750294 9.6728616595275 0.0 0.0 0.0 0.0 0.0 0.0 0.0 0.0 0.0
1317065186880729913 0 1317065186880729913 imu_link -0.0035332164017355234 0.01660919116586918 0.9928077907266463 0.11850882592933631 0.0 0.0 0.0 0.0 0.0 0.0 0.0 0.0 0.0 -0.01923874437427 -0.00222724023548 0.00448211995972 0.0 0.0 0.0 0.0 0.0 0.0 0.0 0.0 0.0 0.24072664440399 0.0300887286498 9.7559928492921 0.0 0.0 0.0 0.0 0.0 0.0 0.0 0.0 0.0
1317065186985727071 0 1317065186985727071 imu_link -0.002995162735799678 0.015741457353393027 0.9928449838540616 0.11833035771265597 0.0 0.0 0.0 0.0 0.0 0.0 0.0 0.0 0.0 -0.018166152147454 -0.024051671610932 0.0029449329830592 0.0 0.0 0.0 0.0 0.0 0.0 0.0 0.0 0.0 0.24585573317798 0.050956222524579 9.8391240390567 0.0 0.0 0.0 0.0 0.0 0.0 0.0 0.0 0.0
1317065187085742950 0 1317065187085742950 imu_link -0.0026027607833738167 0.01520721777576508 0.9928599692981902 0.11828375851748185 0.0 0.0 0.0 0.0 0.0 0.0 0.0 0.0 0.0 -0.011874215721802 -0.0082947464603671 0.0016369276963577 0.0 0.0 0.0 0.0 0.0 0.0 0.0 0.0 0.0 0.43211226512768 -0.061906254893941 10.28712789067 0.0 0.0 0.0 0.0 0.0 0.0 0.0 0.0 0.0
1317065187185822010 0 1317065187185822010 imu_link -0.004041708775246924 0.014570401828787466 0.9928726303928969 0.11821720601255017 0.0 0.0 0.0 0.0 0.0 0.0 0.0 0.0 0.0 -0.015221504242908 0.020753833932831 0.0020786982883343 0.0 0.0 0.0 0.0 0.0 0.0 0.0 0.0 0.0 0.31493889164709 0.081571271652724 9.9612182067401 0.0 0.0 0.0 0.0 0.0 0.0 0.0 0.0 0.0
1317065187295774936 0 1317065187295774936 imu_link -0.0043823791778534234 0.014625721012153073 0.9928559813819993 0.11833800434181384 0.0 0.0 0.0 0.0 0.0 0.0 0.0 0.0 0.0 -0.0018443626911727 0.0011114829385841 -0.0010700466178996 0.0 0.0 0.0 0.0 0.0 0.0 0.0 0.0 0.0 0.19685436617622 0.059014431999558 9.1067051544434 0.0 0.0 0.0 0.0 0.0 0.0 0.0 0.0 0.0
1317065187395742893 0 1317065187395742893 imu_link -0.0034926922854709255 0.013544560997192926 0.9928542201647654 0.1185109424019905 0.0 0.0 0.0 0.0 0.0 0.0 0.0 0.0 0.0 -0.017393671120819 -0.015270574165116 -0.003190594389017 0.0 0.0 0.0 0.0 0.0 0.0 0.0 0.0 0.0 0.32341499831542 -0.14971030597327 9.8539520201342 0.0 0.0 0.0 0.0 0.0 0.0 0.0 0.0 0.0
1317065187495778083 0 1317065187495778083 imu_link -0.0025765783089152124 0.013699025413602725 0.992803120969195 0.11894394032804438 0.0 0.0 0.0 0.0 0.0 0.0 0.0 0.0 0.0 -0.005955911679864 -0.014391022203023 -0.0077003026899608 0.0 0.0 0.0 0.0 0.0 0.0 0.0 0.0 0.0 0.16821740395814 -0.065977239110974 9.9627382505266 0.0 0.0 0.0 0.0 0.0 0.0 0.0 0.0 0.0
1317065187605792999 0 1317065187605792999 imu_link -0.0013536867701342938 0.013386217225894932 0.9927615263726759 0.11934625454828623 0.0 0.0 0.0 0.0 0.0 0.0 0.0 0.0 0.0 -0.0019986146688222 -0.017602922981976 -0.00760677989284 0.0 0.0 0.0 0.0 0.0 0.0 0.0 0.0 0.0 0.31051827837044 -0.14130814770114 10.488759974619 0.0 0.0 0.0 0.0 0.0 0.0 0.0 0.0 0.0
1317065187705837965 0 1317065187705837965 imu_link -0.0022546663110956234 0.013841981603255338 0.9927035540631401 0.1197621383223053 0.0 0.0 0.0 0.0 0.0 0.0 0.0 0.0 0.0 0.0063471361660087 0.012694935862325 -0.0072793651631503 0.0 0.0 0.0 0.0 0.0 0.0 0.0 0.0 0.0 0.26852262476381 -0.14762683712155 10.046162238595 0.0 0.0 0.0 0.0 0.0 0.0 0.0 0.0 0.0
1317065187805808067 0 1317065187805808067 imu_link -0.0030535915888567937 0.014433779987042827 0.9926411847348583 0.12019076479443393 0.0 0.0 0.0 0.0 0.0 0.0 0.0 0.0 0.0 0.0050895533609423 0.014841808545138 -0.0072314964100406 0.0 0.0 0.0 0.0 0.0 0.0 0.0 0.0 0.0 0.18082089741797 -0.162414590908 9.3742532299108 0.0 0.0 0.0 0.0 0.0 0.0 0.0 0.0 0.0
1317065187915777921 0 1317065187915777921 imu_link -0.0033073769279762435 0.015461437611549661 0.9925918753806869 0.12046316504679434 0.0 0.0 0.0 0.0 0.0 0.0 0.0 0.0 0.0 0.016490865537317 0.0062038495305805 -0.0041831822701433 0.0 0.0 0.0 0.0 0.0 0.0 0.0 0.0 0.0 0.21943933407204 -0.15548792174785 9.7286893770207 0.0 0.0 0.0 0.0 0.0 0.0 0.0 0.0 0.0
1317065188015748977 0 1317065188015748977 imu_link -0.0036934280018110855 0.015686198851525866 0.9925492833757413 0.12077343178650023 0.0 0.0 0.0 0.0 0.0 0.0 0.0 0.0 0.0 0.0044296606087444 0.0038532179461084 -0.0049909100897 0.0 0.0 0.0 0.0 0.0 0.0 0.0 0.0 0.0 0.18053181916648 0.038097371769186 9.4392659931866 0.0 0.0 0.0 0.0 0.0 0.0 0.0 0.0 0.0
1317065188115798950 0 1317065188115798950 imu_link -0.0031141793539266197 0.015515153378211861 0.9925047649506064 0.12117703352097699 0.0 0.0 0.0 0.0 0.0 0.0 0.0 0.0 0.0 -0.0024487033888302 -0.0081988359268228 -0.0071442196425483 0.0 0.0 0.0 0.0 0.0 0.0 0.0 0.0 0.0 0.23206572673882 -0.020093882402498 9.8797806617441 0.0 0.0 0.0 0.0 0.0 0.0 0.0 0.0 0.0
1317065188225898981 0 1317065188225898981 imu_link -0.0035653406431257317 0.014899094373788682 0.9924719064788505 0.12151057642516246 0.0 0.0 0.0 0.0 0.0 0.0 0.0 0.0 0.0 -0.011952796497492 0.0065599652436157 -0.0053467503472127 0.0 0.0 0.0 0.0 0.0 0.0 0.0 0.0 0.0 0.23996107771589 -0.011599897073505 9.9698533989993 0.0 0.0 0.0 0.0 0.0 0.0 0.0 0.0 0.0
1317065188325828075 0 1317065188325828075 imu_link -0.004310515217143601 0.014519419294769458 0.9924306452177587 0.12186886540281217 0.0 0.0 0.0 0.0 0.0 0.0 0.0 0.0 0.0 -0.010101024084992 0.010663791791468 -0.0056080585723732 0.0 0.0 0.0 0.0 0.0 0.0 0.0 0.0 0.0 0.062851315832685 -0.17471758464065 9.6548845885774 0.0 0.0 0.0 0.0 0.0 0.0 0.0 0.0 0.0
1317065188425846099 0 1317065188425846099 imu_link -0.004023728494010986 0.014853953978801184 0.9923851194259359 0.1222086101801877 0.0 0.0 0.0 0.0 0.0 0.0 0.0 0.0 0.0 0.0044437810309184 -0.0037352914371415 -0.0060572590953481 0.0 0.0 0.0 0.0 0.0 0.0 0.0 0.0 0.0 0.030751678820154 -0.21638346746367 9.6790804722517 0.0 0.0 0.0 0.0 0.0 0.0 0.0 0.0 0.0
1317065188535842895 0 1317065188535842895 imu_link -0.0038274547456359064 0.01596341002588708 0.9923307763045999 0.12251591949304198 0.0 0.0 0.0 0.0 0.0 0.0 0.0 0.0 0.0 0.019718603594641 0.00076251574168404 -0.0051124614523475 0.0 0.0 0.0 0.0 0.0 0.0 0.0 0.0 0.0 0.05325123727637 -0.20700862716749 9.9828521460782 0.0 0.0 0.0 0.0 0.0 0.0 0.0 0.0 0.0
1317065188635968923 0 1317065188635968923 imu_link -0.004518171933226547 0.0166471233608985 0.9923026645432068 0.12262903957318079 0.0 0.0 0.0 0.0 0.0 0.0 0.0 0.0 0.0 0.012715240606508 0.013963469614012 -0.0023839087934659 0.0 0.0 0.0 0.0 0.0 0.0 0.0 0.0 0.0 -0.016450995094849 -0.053226957712298 9.8938357281957 0.0 0.0 0.0 0.0 0.0 0.0 0.0 0.0 0.0
1317065188735922098 0 1317065188735922098 imu_link -0.005233836982396078 0.016928078180995492 0.9922802497702221 0.12274344396131963 0.0 0.0 0.0 0.0 0.0 0.0 0.0 0.0 0.0 0.0057084029815087 0.015021459859936 -0.0021883884151575 0.0 0.0 0.0 0.0 0.0 0.0 0.0 0.0 0.0 -0.094099269836432 0.111023202845 9.5161027042942 0.0 0.0 0.0 0.0 0.0 0.0 0.0 0.0 0.0
1317065188845843076 0 1317065188845843076 imu_link -0.004949961617909755 0.0165432139126946 0.9922577514303881 0.1229893275033667 0.0 0.0 0.0 0.0 0.0 0.0 0.0 0.0 0.0 -0.0059680977411042 -0.0032807258892939 -0.0041322186050801 0.0 0.0 0.0 0.0 0.0 0.0 0.0 0.0 0.0 -0.1550176235812 0.050498541560951 9.6747042667966 0.0 0.0 0.0 0.0 0.0 0.0 0.0 0.0 0.0
1317065188945880889 0 1317065188945880889 imu_link -0.004601926683906425 0.01613041113465424 0.9922294749002882 0.1232854462072518 0.0 0.0 0.0 0.0 0.0 0.0 0.0 0.0 0.0 -0.0077225050254671 -0.0070030581189716 -0.0049783102835107 0.0 0.0 0.0 0.0 0.0 0.0 0.0 0.0 0.0 -0.080132837881251 -0.086110731257734 9.8477108198514 0.0 0.0 0.0 0.0 0.0 0.0 0.0 0.0 0.0
1317065189045877933 0 1317065189045877933 imu_link -0.004999678477161248 0.01601179233050598 0.9922058136348613 0.12347570251135576 0.0 0.0 0.0 0.0 0.0 0.0 0.0 0.0 0.0 -0.0021911533656597 0.0051909552182602 -0.0036134733801818 0.0 0.0 0.0 0.0 0.0 0.0 0.0 0.0 0.0 -0.20051967565868 -0.14834755433198 10.053348921188 0.0 0.0 0.0 0.0 0.0 0.0 0.0 0.0 0.0
1317065189155975103 0 1317065189155975103 imu_link -0.004740365095256919 0.015807912422555418 0.9921901365228823 0.12363806788488957 0.0 0.0 0.0 0.0 0.0 0.0 0.0 0.0 0.0 -0.0045620628569041 -0.008253883121438 -0.0028688532040176 0.0 0.0 0.0 0.0 0.0 0.0 0.0 0.0 0.0 -0.22384880431874 -0.040938554582783 9.5225748125819 0.0 0.0 0.0 0.0 0.0 0.0 0.0 0.0 0.0
1317065189255903005 0 1317065189255903005 imu_link -0.0037060166266820096 0.015450652048627743 0.9921878199428511 0.1237371114463544 0.0 0.0 0.0 0.0 0.0 0.0 0.0 0.0 0.0 -0.0035928993767911 -0.015543359881158 -0.0026213413712362 0.0 0.0 0.0 0.0 0.0 0.0 0.0 0.0 0.0 -0.18502751962184 -0.0093287280540043 10.106109748805 0.0 0.0 0.0 0.0 0.0 0.0 0.0 0.0 0.0
1317065189355811119 0 1317065189355811119 imu_link -0.0026842383240481137 0.014790717906460603 0.9921798066711826 0.12390827560080973 0.0 0.0 0.0 0.0 0.0 0.0 0.0 0.0 0.0 -0.00928236765353 -0.020615509780161 -0.0035671753208332 0.0 0.0 0.0 0.0 0.0 0.0 0.0 0.0 0.0 -0.1275612611105 0.010806902193895 10.024926510941 0.0 0.0 0.0 0.0 0.0 0.0 0.0 0.0 0.0
1317065189465765953 0 1317065189465765953 imu_link -0.0027291895396072885 0.014801514576092087 0.9921617104060994 0.12405082464358806 0.0 0.0 0.0 0.0 0.0 0.0 0.0 0.0 0.0 -0.00027006448147616 -0.0010034908042359 -0.0024335929130024 0.0 0.0 0.0 0.0 0.0 0.0 0.0 0.0 0.0 0.17898942955902 -0.19317187396566 10.476969251538 0.0 0.0 0.0 0.0 0.0 0.0 0.0 0.0 0.0
1317065189565835952 0 1317065189565835952 imu_link -0.006154635491367175 0.015988997646410354 0.9920908308358654 0.12434731918153182 0.0 0.0 0.0 0.0 0.0 0.0 0.0 0.0 0.0 0.014055595712327 0.054459579530952 -0.0038569192038587 0.0 0.0 0.0 0.0 0.0 0.0 0.0 0.0 0.0 -0.071480172048459 -0.29248504756634 8.9192766325661 0.0 0.0 0.0 0.0 0.0 0.0 0.0 0.0 0.0
1317065189665939092 0 1317065189665939092 imu_link -0.006702900192512174 0.017501382582035176 0.9920609932066861 0.12435336141210683 0.0 0.0 0.0 0.0 0.0 0.0 0.0 0.0 0.0 0.022801803989481 0.020969259326179 -0.00055971797428729 0.0 0.0 0.0 0.0 0.0 0.0 0.0 0.0 0.0 0.090200737942781 -0.32088805857976 9.1619744463679 0.0 0.0 0.0 0.0 0.0 0.0 0.0 0.0 0.0
1317065189775824069 0 1317065189775824069 imu_link -0.006692260016641019 0.01927726176851831 0.9920287885537922 0.12434823486914995 0.0 0.0 0.0 0.0 0.0 0.0 0.0 0.0 0.0 0.023481246384248 7.4574632058591e-05 -0.00029600080527582 0.0 0.0 0.0 0.0 0.0 0.0 0.0 0.0 0.0 -0.14860227443454 0.11973990220086 9.5595176344431 0.0 0.0 0.0 0.0 0.0 0.0 0.0 0.0 0.0
1317065189875814914 0 1317065189875814914 imu_link -0.004492753127830116 0.01834935475267318 0.9920727948235308 0.12423641221687613 0.0 0.0 0.0 0.0 0.0 0.0 0.0 0.0 0.0 -0.0090503884512881 -0.044009445983694 0.00091950510291917 0.0 0.0 0.0 0.0 0.0 0.0 0.0 0.0 0.0 -0.0029339118791906 0.39546624532679 9.7305983783362 0.0 0.0 0.0 0.0 0.0 0.0 0.0 0.0 0.0
1317065189975804090 0 1317065189975804090 imu_link -0.0020011786322659433 0.015647848125463555 0.9921150069466469 0.12433403847852416 0.0 0.0 0.0 0.0 0.0 0.0 0.0 0.0 0.0 -0.037225197474887 -0.050761295513776 -0.001507784739742 0.0 0.0 0.0 0.0 0.0 0.0 0.0 0.0 0.0 0.033328109970618 0.23681420803133 10.691141612584 0.0 0.0 0.0 0.0 0.0 0.0 0.0 0.0 0.0
1317065190075866937 0 1317065190075866937 imu_link -0.002861666257474175 0.013141789428972369 0.9921024396675174 0.12470707053970737 0.0 0.0 0.0 0.0 0.0 0.0 0.0 0.0 0.0 -0.048662625225051 0.009049962842269 -0.0060264301556368 0.0 0.0 0.0 0.0 0.0 0.0 0.0 0.0 0.0 0.16616886368813 0.13626309071195 10.667097865317 0.0 0.0 0.0 0.0 0.0 0.0 0.0 0.0 0.0
1317065190186065912 0 1317065190186065912 imu_link -0.005213821224402908 0.011379734186695821 0.9920856972978058 0.12493713193125038 0.0 0.0 0.0 0.0 0.0 0.0 0.0 0.0 0.0 -0.031602291332392 0.030248726706744 -0.0028811389458098 0.0 0.0 0.0 0.0 0.0 0.0 0.0 0.0 0.0 -0.050107318262041 -0.23840025282547 9.3598307011885 0.0 0.0 0.0 0.0 0.0 0.0 0.0 0.0 0.0
1317065190285819053 0 1317065190285819053 imu_link -0.004953693070319946 0.011565634598419142 0.9920864074515797 0.12492500618818855 0.0 0.0 0.0 0.0 0.0 0.0 0.0 0.0 0.0 -0.00061992661172957 -0.0054598203660365 0.00058068659751853 0.0 0.0 0.0 0.0 0.0 0.0 0.0 0.0 0.0 -0.082780020457796 -0.26150329327526 9.460534811626 0.0 0.0 0.0 0.0 0.0 0.0 0.0 0.0 0.0
1317065190385862112 0 1317065190385862112 imu_link -0.0047331275325906245 0.01299881689180882 0.9920762181014414 0.12487355901356625 0.0 0.0 0.0 0.0 0.0 0.0 0.0 0.0 0.0 0.023092815515136 -0.0041356974760735 0.0006631675582572 0.0 0.0 0.0 0.0 0.0 0.0 0.0 0.0 0.0 -0.097800832297381 -0.16605938178966 9.9032115307271 0.0 0.0 0.0 0.0 0.0 0.0 0.0 0.0 0.0
1317065190495893001 0 1317065190495893001 imu_link -0.004990443300537877 0.014502686352710908 0.9920767553739348 0.12469354037376915 0.0 0.0 0.0 0.0 0.0 0.0 0.0 0.0 0.0 0.028109617879244 0.0090114299630445 0.0029559129390568 0.0 0.0 0.0 0.0 0.0 0.0 0.0 0.0 0.0 -0.018387539132991 -0.13558728612161 9.9155344737658 0.0 0.0 0.0 0.0 0.0 0.0 0.0 0.0 0.0
1317065190595877885 0 1317065190595877885 imu_link -0.00546541094598076 0.01596232725580756 0.9920612303117409 0.12461881360422633 0.0 0.0 0.0 0.0 0.0 0.0 0.0 0.0 0.0 0.02785895866537 0.014126363357019 0.0018325176386224 0.0 0.0 0.0 0.0 0.0 0.0 0.0 0.0 0.0 -0.019328799661977 0.081015989048353 9.7244478919973 0.0 0.0 0.0 0.0 0.0 0.0 0.0 0.0 0.0
1317065190696001052 0 1317065190696001052 imu_link -0.005607981616413098 0.017190217995564683 0.9920579729577635 0.12447499844703137 0.0 0.0 0.0 0.0 0.0 0.0 0.0 0.0 0.0 0.023033343619405 0.0059828041367012 0.0030989230922094 0.0 0.0 0.0 0.0 0.0 0.0 0.0 0.0 0.0 -0.072362878721192 0.013421516762429 9.5549889244573 0.0 0.0 0.0 0.0 0.0 0.0 0.0 0.0 0.0
1317065190805886983 0 1317065190805886983 imu_link -0.004500248923884297 0.017905253960324958 0.9920938304027007 0.12413291794337512 0.0 0.0 0.0 0.0 0.0 0.0 0.0 0.0 0.0 0.015383711866013 -0.019347224589985 0.0061220698634831 0.0 0.0 0.0 0.0 0.0 0.0 0.0 0.0 0.0 -0.1317992205949 0.173655324313 9.5299733172852 0.0 0.0 0.0 0.0 0.0 0.0 0.0 0.0 0.0
1317065190905894994 0 1317065190905894994 imu_link -0.0023287053112188206 0.01794104512192335 0.9921674744187691 0.123597729497705 0.0 0.0 0.0 0.0 0.0 0.0 0.0 0.0 0.0 0.0038839587793195 -0.040789437265582 0.010533764968962 0.0 0.0 0.0 0.0 0.0 0.0 0.0 0.0 0.0 0.033120723545508 -0.32394077781623 9.8955800930469 0.0 0.0 0.0 0.0 0.0 0.0 0.0 0.0 0.0
1317065191015935897 0 1317065191015935897 imu_link -0.0005409303985011776 0.01779548371160109 0.9922301305346295 0.12313568212750686 0.0 0.0 0.0 0.0 0.0 0.0 0.0 0.0 0.0 -0.0029916430900544 -0.030256442321443 0.0087685199850393 0.0 0.0 0.0 0.0 0.0 0.0 0.0 0.0 0.0 0.27744120326278 0.1617821432464 10.389698503609 0.0 0.0 0.0 0.0 0.0 0.0 0.0 0.0 0.0
1317065191115916013 0 1317065191115916013 imu_link -0.0012142780978321803 0.017637237844794307 0.9922652882554402 0.12287005775719026 0.0 0.0 0.0 0.0 0.0 0.0 0.0 0.0 0.0 -0.0030690981638995 0.0077560163776941 0.0059266538872504 0.0 0.0 0.0 0.0 0.0 0.0 0.0 0.0 0.0 0.27869814880188 0.13275317053249 10.432744527645 0.0 0.0 0.0 0.0 0.0 0.0 0.0 0.0 0.0
1317065191216104030 0 1317065191216104030 imu_link -0.0031996346694160667 0.0183269019165768 0.992270912873514 0.12268790677685174 0.0 0.0 0.0 0.0 0.0 0.0 0.0 0.0 0.0 0.0064833333316918 0.033138800881092 0.0042471647538229 0.0 0.0 0.0 0.0 0.0 0.0 0.0 0.0 0.0 0.16089113594128 -0.024065618921444 9.4134305197403 0.0 0.0 0.0 0.0 0.0 0.0 0.0 0.0 0.0
1317065191315943956 0 1317065191315943956 imu_link -0.003721064114986679 0.019072905523102326 0.9922610511205401 0.12263924488482399 0.0 0.0 0.0 0.0 0.0 0.0 0.0 0.0 0.0 0.0091236849639185 0.012259692187403 0.0014840540982429 0.0 0.0 0.0 0.0 0.0 0.0 0.0 0.0 0.0 0.11726006648812 -0.013290393766316 9.324000081354 0.0 0.0 0.0 0.0 0.0 0.0 0.0 0.0 0.0
1317065191425887107 0 1317065191425887107 imu_link -0.004055390852717378 0.019498306869396086 0.992224783445437 0.12285499155880665 0.0 0.0 0.0 0.0 0.0 0.0 0.0 0.0 0.0 0.0062631255455635 0.0065161550988424 -0.0039873361671403 0.0 0.0 0.0 0.0 0.0 0.0 0.0 0.0 0.0 0.19667831704316 0.025399148562862 9.5847932772907 0.0 0.0 0.0 0.0 0.0 0.0 0.0 0.0 0.0
1317065191525948047 0 1317065191525948047 imu_link -0.004485173906063874 0.018703334753186987 0.9921894740820164 0.12324818864792494 0.0 0.0 0.0 0.0 0.0 0.0 0.0 0.0 0.0 -0.014276226392257 0.0086404225040378 -0.007015010932643 0.0 0.0 0.0 0.0 0.0 0.0 0.0 0.0 0.0 0.24117997501962 0.10722304464442 9.6986476069583 0.0 0.0 0.0 0.0 0.0 0.0 0.0 0.0 0.0
1317065191625900983 0 1317065191625900983 imu_link -0.004451656553656928 0.017854945626343464 0.9921494415449548 0.12369668270670425 0.0 0.0 0.0 0.0 0.0 0.0 0.0 0.0 0.0 -0.016574371765115 -0.0019954709850932 -0.0077915494213808 0.0 0.0 0.0 0.0 0.0 0.0 0.0 0.0 0.0 0.20802915987588 -0.041483011243334 9.7220302390009 0.0 0.0 0.0 0.0 0.0 0.0 0.0 0.0 0.0
1317065191736118078 0 1317065191736118078 imu_link -0.0036263828289365583 0.016756341204553445 0.9921399738585365 0.12395300177485377 0.0 0.0 0.0 0.0 0.0 0.0 0.0 0.0 0.0 -0.014464182407286 -0.01645262264451 -0.0052008890741997 0.0 0.0 0.0 0.0 0.0 0.0 0.0 0.0 0.0 0.25700576596734 -0.12207789154354 9.8442368300203 0.0 0.0 0.0 0.0 0.0 0.0 0.0 0.0 0.0
1317065191835953950 0 1317065191835953950 imu_link -0.0026529280932812327 0.01626115335604906 0.9921378910861426 0.12406023510861348 0.0 0.0 0.0 0.0 0.0 0.0 0.0 0.0 0.0 -0.0082697750453959 -0.017022025601149 -0.0029464915083861 0.0 0.0 0.0 0.0 0.0 0.0 0.0 0.0 0.0 0.35211684746145 -0.2131430818717 10.00458492687 0.0 0.0 0.0 0.0 0.0 0.0 0.0 0.0 0.0
1317065191935982942 0 1317065191935982942 imu_link -0.002891783914155242 0.016666336759142787 0.9921169727939647 0.1241683659349843 0.0 0.0 0.0 0.0 0.0 0.0 0.0 0.0 0.0 0.003783838586014 0.0051144299630523 -0.0027520070351628 0.0 0.0 0.0 0.0 0.0 0.0 0.0 0.0 0.0 0.42168375034478 -0.051998666512984 10.176497015251 0.0 0.0 0.0 0.0 0.0 0.0 0.0 0.0 0.0
1317065192045980930 0 1317065192045980930 imu_link -0.004262485719652711 0.016742733580741746 0.992121881607102 0.1240793460819238 0.0 0.0 0.0 0.0 0.0 0.0 0.0 0.0 0.0 0.0027112862693921 0.020456085582916 0.00099286858087349 0.0 0.0 0.0 0.0 0.0 0.0 0.0 0.0 0.0 0.38369338242008 -0.081672538666619 9.5289720294364 0.0 0.0 0.0 0.0 0.0 0.0 0.0 0.0 0.0
1317065192146090030 0 1317065192146090030 imu_link -0.004567173380109951 0.017424244713522698 0.9921148863595108 0.12403059657735258 0.0 0.0 0.0 0.0 0.0 0.0 0.0 0.0 0.0 0.010214617159307 0.0088974257584519 0.00062187466921293 0.0 0.0 0.0 0.0 0.0 0.0 0.0 0.0 0.0 0.28792370049044 0.22046194739578 9.4561175380457 0.0 0.0 0.0 0.0 0.0 0.0 0.0 0.0 0.0
1317065192246025085 0 1317065192246025085 imu_link -0.0036565483470229337 0.01601124707427999 0.9921570847184176 0.12391363469918334 0.0 0.0 0.0 0.0 0.0 0.0 0.0 0.0 0.0 -0.017144403628888 -0.016433435304792 0.0010516236735108 0.0 0.0 0.0 0.0 0.0 0.0 0.0 0.0 0.0 0.37171712724328 0.10327719062392 9.6807355190613 0.0 0.0 0.0 0.0 0.0 0.0 0.0 0.0 0.0
1317065192355968952 0 1317065192355968952 imu_link -0.0023228679167930817 0.015453980365029677 0.9921714939660767 0.12390119182898016 0.0 0.0 0.0 0.0 0.0 0.0 0.0 0.0 0.0 -0.011385778329881 -0.020936684998232 -0.00018543210814195 0.0 0.0 0.0 0.0 0.0 0.0 0.0 0.0 0.0 0.46360086284357 0.07596661187242 10.29149476072 0.0 0.0 0.0 0.0 0.0 0.0 0.0 0.0 0.0
1317065192455991983 0 1317065192455991983 imu_link -0.0028982995779505225 0.014497789032802825 0.9921756557651835 0.12397129538584646 0.0 0.0 0.0 0.0 0.0 0.0 0.0 0.0 0.0 -0.015723065020151 0.0032367773026586 -0.00039095368629374 0.0 0.0 0.0 0.0 0.0 0.0 0.0 0.0 0.0 0.56213555311552 -0.10747785154418 10.248361104795 0.0 0.0 0.0 0.0 0.0 0.0 0.0 0.0 0.0
1317065192565984010 0 1317065192565984010 imu_link -0.003968506817647298 0.014905676134931028 0.9921695690254752 0.1239419947895061 0.0 0.0 0.0 0.0 0.0 0.0 0.0 0.0 0.0 0.0046834157756683 0.018817360761223 0.0011284680947229 0.0 0.0 0.0 0.0 0.0 0.0 0.0 0.0 0.0 0.29420413568892 -0.18997222025506 9.5467776830892 0.0 0.0 0.0 0.0 0.0 0.0 0.0 0.0 0.0
1317065192666166067 0 1317065192666166067 imu_link -0.0035605056470403304 0.016073990856058554 0.9921642286821474 0.12385109180405407 0.0 0.0 0.0 0.0 0.0 0.0 0.0 0.0 0.0 0.025819656172465 0.0023968735322866 0.0010859614057204 0.0 0.0 0.0 0.0 0.0 0.0 0.0 0.0 0.0 0.32298210830839 -0.060518477944735 9.60958416855 0.0 0.0 0.0 0.0 0.0 0.0 0.0 0.0 0.0
1317065192766030073 0 1317065192766030073 imu_link -0.0032893550964752105 0.01628405804111418 0.9921496935061962 0.12394755048940603 0.0 0.0 0.0 0.0 0.0 0.0 0.0 0.0 0.0 0.008206507408239 6.1545488656387e-06 -0.0014170235647099 0.0 0.0 0.0 0.0 0.0 0.0 0.0 0.0 0.0 0.45537269653788 0.24450971909911 9.8919635313359 0.0 0.0 0.0 0.0 0.0 0.0 0.0 0.0 0.0
1317065192866002082 0 1317065192866002082 imu_link -0.0029900859160533525 0.01668256550400557 0.9920937185050664 0.12434952793319846 0.0 0.0 0.0 0.0 0.0 0.0 0.0 0.0 0.0 0.00698808345495 -0.0060964568081268 -0.0080884333204385 0.0 0.0 0.0 0.0 0.0 0.0 0.0 0.0 0.0 0.48080361599095 0.054778617943549 9.6121179947798 0.0 0.0 0.0 0.0 0.0 0.0 0.0 0.0 0.0
1317065192975977897 0 1317065192975977897 imu_link -0.0028707526945902086 0.015203862208808223 0.9920695367208233 0.12473426018313051 0.0 0.0 0.0 0.0 0.0 0.0 0.0 0.0 0.0 -0.020464335291529 -0.0085424992899122 -0.0081225016701197 0.0 0.0 0.0 0.0 0.0 0.0 0.0 0.0 0.0 0.1756339674651 -0.10581684759693 10.050949834011 0.0 0.0 0.0 0.0 0.0 0.0 0.0 0.0 0.0
1317065193075995922 0 1317065193075995922 imu_link -0.0016740418171580546 0.013905713384908766 0.9920393414377106 0.125147008590236 0.0 0.0 0.0 0.0 0.0 0.0 0.0 0.0 0.0 -0.026856756836051 -0.025253391009407 -0.0082860729904008 0.0 0.0 0.0 0.0 0.0 0.0 0.0 0.0 0.0 0.45385465335831 -0.16419760797379 9.5897274559676 0.0 0.0 0.0 0.0 0.0 0.0 0.0 0.0 0.0
1317065193176240921 0 1317065193176240921 imu_link -0.0018443775948777477 0.01311363145553055 0.9920044559516182 0.1255061365570222 0.0 0.0 0.0 0.0 0.0 0.0 0.0 0.0 0.0 -0.022841931711027 0.015718226636592 -0.007889182125397 0.0 0.0 0.0 0.0 0.0 0.0 0.0 0.0 0.0 0.61649710648335 0.32817803142652 10.526224007354 0.0 0.0 0.0 0.0 0.0 0.0 0.0 0.0 0.0
1317065193286022901 0 1317065193286022901 imu_link -0.0031815307146900768 0.012545623536016334 0.9919481661433486 0.12598143068425435 0.0 0.0 0.0 0.0 0.0 0.0 0.0 0.0 0.0 -0.010572852876263 0.022269139125318 -0.0076534372313276 0.0 0.0 0.0 0.0 0.0 0.0 0.0 0.0 0.0 0.6365426949524 -0.35927921497407 9.763322250036 0.0 0.0 0.0 0.0 0.0 0.0 0.0 0.0 0.0
1317065193386040925 0 1317065193386040925 imu_link -0.004743532031294784 0.01293786144286443 0.9918841276649877 0.12639615473352014 0.0 0.0 0.0 0.0 0.0 0.0 0.0 0.0 0.0 0.0017087688272539 0.018707950698834 -0.0080024084625812 0.0 0.0 0.0 0.0 0.0 0.0 0.0 0.0 0.0 0.31571572146535 -0.25041504396364 9.3103855831 0.0 0.0 0.0 0.0 0.0 0.0 0.0 0.0 0.0
1317065193486047983 0 1317065193486047983 imu_link -0.004172931579191106 0.013261593845953636 0.9918563998209013 0.1266001536532263 0.0 0.0 0.0 0.0 0.0 0.0 0.0 0.0 0.0 0.0092055435816174 -0.0090957608267979 -0.0059654174130135 0.0 0.0 0.0 0.0 0.0 0.0 0.0 0.0 0.0 0.51990193734684 -0.13133927287375 9.685471957224 0.0 0.0 0.0 0.0 0.0 0.0 0.0 0.0 0.0
1317065193596012115 0 1317065193596012115 imu_link -0.0034450982757372375 0.013141784273586404 0.9918195091144695 0.12692315054358652 0.0 0.0 0.0 0.0 0.0 0.0 0.0 0.0 0.0 -4.000832068327e-05 -0.012582024188023 -0.0056523598101114 0.0 0.0 0.0 0.0 0.0 0.0 0.0 0.0 0.0 0.47163349907533 -0.13286824670143 10.103612645642 0.0 0.0 0.0 0.0 0.0 0.0 0.0 0.0 0.0
1317065193696059942 0 1317065193696059942 imu_link -0.0027968528828120624 0.013800988846236742 0.9917666523656996 0.12728164665870603 0.0 0.0 0.0 0.0 0.0 0.0 0.0 0.0 0.0 0.013530233249857 -0.012359645903706 -0.0062423450358329 0.0 0.0 0.0 0.0 0.0 0.0 0.0 0.0 0.0 0.42659219953848 -0.13155547740946 10.230585232956 0.0 0.0 0.0 0.0 0.0 0.0 0.0 0.0 0.0
1317065193796044111 0 1317065193796044111 imu_link -0.0025235246439018547 0.014627850599528829 0.9917117971478867 0.12762197776213247 0.0 0.0 0.0 0.0 0.0 0.0 0.0 0.0 0.0 0.017671268007834 -0.0060778582979791 -0.0059911171453771 0.0 0.0 0.0 0.0 0.0 0.0 0.0 0.0 0.0 0.47731074082129 -0.29256639319329 9.9790690459068 0.0 0.0 0.0 0.0 0.0 0.0 0.0 0.0 0.0
1317065193906018972 0 1317065193906018972 imu_link -0.001999179189111946 0.015332847505274002 0.9916804740820856 0.12779180096657047 0.0 0.0 0.0 0.0 0.0 0.0 0.0 0.0 0.0 0.014619035467385 -0.0069798827098424 -0.0025441369287122 0.0 0.0 0.0 0.0 0.0 0.0 0.0 0.0 0.0 0.42130575387153 -0.12001843756909 9.8342278565403 0.0 0.0 0.0 0.0 0.0 0.0 0.0 0.0 0.0
1317065194006059885 0 1317065194006059885 imu_link -0.0017403901806066296 0.01603479412816306 0.9916416643876704 0.12801041313009456 0.0 0.0 0.0 0.0 0.0 0.0 0.0 0.0 0.0 0.014509471869552 -0.0010504675248524 -0.004070346313676 0.0 0.0 0.0 0.0 0.0 0.0 0.0 0.0 0.0 0.32501975063678 0.075674997303042 10.009774479133 0.0 0.0 0.0 0.0 0.0 0.0 0.0 0.0 0.0
1317065194106031894 0 1317065194106031894 imu_link -0.002091966790996397 0.015603094310356627 0.9916217352235556 0.1282127191627723 0.0 0.0 0.0 0.0 0.0 0.0 0.0 0.0 0.0 -0.0049163477586514 0.005629900523551 -0.0043127536393011 0.0 0.0 0.0 0.0 0.0 0.0 0.0 0.0 0.0 0.29542258774428 -0.10423544270842 9.7397301216957 0.0 0.0 0.0 0.0 0.0 0.0 0.0 0.0 0.0
1317065194216316938 0 1317065194216316938 imu_link -0.002664001744164342 0.01579060004853654 0.9915695619321647 0.12858212898559915 0.0 0.0 0.0 0.0 0.0 0.0 0.0 0.0 0.0 -0.00045123842854713 0.013298654975161 -0.0064582005281004 0.0 0.0 0.0 0.0 0.0 0.0 0.0 0.0 0.0 0.30421990557909 -0.012810725950476 9.8575686751027 0.0 0.0 0.0 0.0 0.0 0.0 0.0 0.0 0.0
1317065194316035985 0 1317065194316035985 imu_link -0.0032329370904635095 0.015911279476154772 0.9915254883336547 0.12889369762679728 0.0 0.0 0.0 0.0 0.0 0.0 0.0 0.0 0.0 0.0019486580219183 0.012605213335348 -0.0061578803541061 0.0 0.0 0.0 0.0 0.0 0.0 0.0 0.0 0.0 0.20692806154052 -0.071483810979475 9.4359028549824 0.0 0.0 0.0 0.0 0.0 0.0 0.0 0.0 0.0
1317065194426063060 0 1317065194426063060 imu_link -0.002468329096405745 0.016039076923400678 0.9914494374408687 0.12947844747718398 0.0 0.0 0.0 0.0 0.0 0.0 0.0 0.0 0.0 0.0027463310348562 -0.0076646933168068 -0.0099750646395612 0.0 0.0 0.0 0.0 0.0 0.0 0.0 0.0 0.0 0.1946310222693 -0.14470485349672 9.8287276689317 0.0 0.0 0.0 0.0 0.0 0.0 0.0 0.0 0.0
1317065194526009082 0 1317065194526009082 imu_link -0.0028741418759629504 0.015765480602597165 0.9913415693823674 0.13032682664881726 0.0 0.0 0.0 0.0 0.0 0.0 0.0 0.0 0.0 -0.005637288484541 0.0035978948599763 -0.016867890960916 0.0 0.0 0.0 0.0 0.0 0.0 0.0 0.0 0.0 0.1958513828079 -0.18358363523867 10.028167551904 0.0 0.0 0.0 0.0 0.0 0.0 0.0 0.0 0.0
1317065194626044034 0 1317065194626044034 imu_link -0.00362627498846557 0.01623922508276698 0.99115007930396 0.13169911918525878 0.0 0.0 0.0 0.0 0.0 0.0 0.0 0.0 0.0 0.0054044245698249 0.0091555438083012 -0.026567527874755 0.0 0.0 0.0 0.0 0.0 0.0 0.0 0.0 0.0 0.12644672799076 -0.32081824915862 9.7485824355689 0.0 0.0 0.0 0.0 0.0 0.0 0.0 0.0 0.0
1317065194736115932 0 1317065194736115932 imu_link -0.003929680160918646 0.01645615407602436 0.9909338344996725 0.13328123742910983 0.0 0.0 0.0 0.0 0.0 0.0 0.0 0.0 0.0 0.0019664606842507 0.0033128150195739 -0.028506895788462 0.0 0.0 0.0 0.0 0.0 0.0 0.0 0.0 0.0 0.11681930374309 -0.53095875823288 9.5121768004189 0.0 0.0 0.0 0.0 0.0 0.0 0.0 0.0 0.0
1317065194836193084 0 1317065194836193084 imu_link -0.0030755924409925422 0.016764971414500007 0.9907477425985971 0.1346416985944243 0.0 0.0 0.0 0.0 0.0 0.0 0.0 0.0 0.0 0.0068825591405877 -0.013659872434123 -0.027661908876475 0.0 0.0 0.0 0.0 0.0 0.0 0.0 0.0 0.0 0.049653833011275 -0.41830690691916 9.8511105853134 0.0 0.0 0.0 0.0 0.0 0.0 0.0 0.0 0.0
1317065194936126947 0 1317065194936126947 imu_link -0.001670729938931359 0.01687786253828038 0.990550408379369 0.13609641757619947 0.0 0.0 0.0 0.0 0.0 0.0 0.0 0.0 0.0 0.0041737224132503 -0.025765516431011 -0.029931863438502 0.0 0.0 0.0 0.0 0.0 0.0 0.0 0.0 0.0 0.05041544735971 -0.3851994869349 9.936169640356 0.0 0.0 0.0 0.0 0.0 0.0 0.0 0.0 0.0
1317065195046128034 0 1317065195046128034 imu_link -0.0010673477855954218 0.016895631201864263 0.990321653340093 0.13775493218298768 0.0 0.0 0.0 0.0 0.0 0.0 0.0 0.0 0.0 0.003998173959256 -0.0079851458485155 -0.030457442280215 0.0 0.0 0.0 0.0 0.0 0.0 0.0 0.0 0.0 0.17706901526435 -0.49697041687423 10.420261238277 0.0 0.0 0.0 0.0 0.0 0.0 0.0 0.0 0.0
1317065195146203041 0 1317065195146203041 imu_link -0.0023521816897878766 0.017362379660435117 0.9901037547797596 0.13923925374996365 0.0 0.0 0.0 0.0 0.0 0.0 0.0 0.0 0.0 0.0050264642981147 0.022137670078423 -0.02954368325415 0.0 0.0 0.0 0.0 0.0 0.0 0.0 0.0 0.0 0.15567220783116 -0.47804061876083 9.635984290048 0.0 0.0 0.0 0.0 0.0 0.0 0.0 0.0 0.0
1317065195246120929 0 1317065195246120929 imu_link -0.0026328449151355386 0.017710036351595564 0.9898954322177298 0.14066433810512088 0.0 0.0 0.0 0.0 0.0 0.0 0.0 0.0 0.0 0.0094189811447494 0.0097229078435898 -0.028794654978197 0.0 0.0 0.0 0.0 0.0 0.0 0.0 0.0 0.0 0.064356893301692 -0.45368003722595 9.4961393583921 0.0 0.0 0.0 0.0 0.0 0.0 0.0 0.0 0.0
1317065195356081962 0 1317065195356081962 imu_link -0.0017962004396139247 0.017670269915349902 0.989661461743994 0.1423191004884462 0.0 0.0 0.0 0.0 0.0 0.0 0.0 0.0 0.0 0.0010303910638516 -0.0094182253163911 -0.029789190776291 0.0 0.0 0.0 0.0 0.0 0.0 0.0 0.0 0.0 0.050769253006445 -0.35375467217866 9.7687432361156 0.0 0.0 0.0 0.0 0.0 0.0 0.0 0.0 0.0
1317065195456098079 0 1317065195456098079 imu_link -0.0011185430617499455 0.01686699769897105 0.9894689963056573 0.1437545081029363 0.0 0.0 0.0 0.0 0.0 0.0 0.0 0.0 0.0 -0.0094098914211498 -0.010678464441338 -0.029154841087588 0.0 0.0 0.0 0.0 0.0 0.0 0.0 0.0 0.0 0.013479105529918 -0.40338220963113 10.129202936165 0.0 0.0 0.0 0.0 0.0 0.0 0.0 0.0 0.0
1317065195556078910 0 1317065195556078910 imu_link -0.0008070699361649473 0.016697731052922094 0.9892605162425921 0.14520387535889884 0.0 0.0 0.0 0.0 0.0 0.0 0.0 0.0 0.0 -0.0031484144036516 -0.0034733673026322 -0.029485426671039 0.0 0.0 0.0 0.0 0.0 0.0 0.0 0.0 0.0 0.016674663989017 -0.40315442719004 10.031245195384 0.0 0.0 0.0 0.0 0.0 0.0 0.0 0.0 0.0
1317065195666273117 0 1317065195666273117 imu_link -0.0010491117796464062 0.017058806232803803 0.9890391867801445 0.1466607769911776 0.0 0.0 0.0 0.0 0.0 0.0 0.0 0.0 0.0 0.0090863651013068 0.0034008955215587 -0.02705224287812 0.0 0.0 0.0 0.0 0.0 0.0 0.0 0.0 0.0 0.10849253669761 -0.58649796642805 10.027349043699 0.0 0.0 0.0 0.0 0.0 0.0 0.0 0.0 0.0
1317065195766105890 0 1317065195766105890 imu_link -0.0014343603117832225 0.017449911846962037 0.9888841562444342 0.1476535428486654 0.0 0.0 0.0 0.0 0.0 0.0 0.0 0.0 0.0 0.0028292089255422 -0.0044632219202825 -0.021497650143753 0.0 0.0 0.0 0.0 0.0 0.0 0.0 0.0 0.0 -0.036149201394206 -0.81262743841632 9.5289805372254 0.0 0.0 0.0 0.0 0.0 0.0 0.0 0.0 0.0
1317065195866111993 0 1317065195866111993 imu_link -0.0006293885519515932 0.019266132740176113 0.9887271862427086 0.14848222514450843 0.0 0.0 0.0 0.0 0.0 0.0 0.0 0.0 0.0 0.031772777286739 -0.01391167230713 -0.019070886351524 0.0 0.0 0.0 0.0 0.0 0.0 0.0 0.0 0.0 -0.0034019708145647 -0.35978545474785 9.8404696048058 0.0 0.0 0.0 0.0 0.0 0.0 0.0 0.0 0.0
1317065195976085901 0 1317065195976085901 imu_link -0.0006847687470162688 0.02021219822215329 0.9885638175958331 0.14944088020064608 0.0 0.0 0.0 0.0 0.0 0.0 0.0 0.0 0.0 0.015139784860918 0.0033650485235766 -0.017468794744862 0.0 0.0 0.0 0.0 0.0 0.0 0.0 0.0 0.0 0.043986374668082 -0.13786986926236 9.8265295201655 0.0 0.0 0.0 0.0 0.0 0.0 0.0 0.0 0.0
1317065196076111078 0 1317065196076111078 imu_link -0.0009762493978198133 0.02037933702639838 0.9884186994925931 0.15037354838151779 0.0 0.0 0.0 0.0 0.0 0.0 0.0 0.0 0.0 0.0046499543566692 0.0073507156522984 -0.018270939803733 0.0 0.0 0.0 0.0 0.0 0.0 0.0 0.0 0.0 0.053177730357906 -0.14533175000892 9.8988236791289 0.0 0.0 0.0 0.0 0.0 0.0 0.0 0.0 0.0
1317065196176285028 0 1317065196176285028 imu_link -0.001394644302066512 0.019900430051254914 0.9883044419883198 0.15118319283968615 0.0 0.0 0.0 0.0 0.0 0.0 0.0 0.0 0.0 -0.0092371777302044 0.0033535592435087 -0.016347829531492 0.0 0.0 0.0 0.0 0.0 0.0 0.0 0.0 0.0 0.040252232665623 -0.25858627547368 9.5787013159806 0.0 0.0 0.0 0.0 0.0 0.0 0.0 0.0 0.0
1317065196286133050 0 1317065196286133050 imu_link -0.0012012454648874 0.019748219589676666 0.9881732393665016 0.15205990211849382 0.0 0.0 0.0 0.0 0.0 0.0 0.0 0.0 0.0 0.0010213308983945 -0.0039831838148027 -0.016138046144198 0.0 0.0 0.0 0.0 0.0 0.0 0.0 0.0 0.0 0.037954532569023 -0.22531536702113 9.7036243594131 0.0 0.0 0.0 0.0 0.0 0.0 0.0 0.0 0.0
1317065196386188030 0 1317065196386188030 imu_link -0.0010975544426749437 0.02002107670716751 0.9880942541262114 0.15253752595508088 0.0 0.0 0.0 0.0 0.0 0.0 0.0 0.0 0.0 0.0079881624676351 0.0015664134826564 -0.010704049755045 0.0 0.0 0.0 0.0 0.0 0.0 0.0 0.0 0.0 0.11686491808956 -0.3947889781652 9.9951162815553 0.0 0.0 0.0 0.0 0.0 0.0 0.0 0.0 0.0
1317065196486180067 0 1317065196486180067 imu_link -0.0019005920622923197 0.021287710490540034 0.9880126403810443 0.15288637473352776 0.0 0.0 0.0 0.0 0.0 0.0 0.0 0.0 0.0 0.020638382397091 0.015892024575988 -0.007608599334694 0.0 0.0 0.0 0.0 0.0 0.0 0.0 0.0 0.0 0.020524812841066 -0.35328825558035 9.7297711374027 0.0 0.0 0.0 0.0 0.0 0.0 0.0 0.0 0.0
1317065196596148014 0 1317065196596148014 imu_link -0.0014982399556046524 0.022799283749130633 0.987989972334321 0.15281937869389933 0.0 0.0 0.0 0.0 0.0 0.0 0.0 0.0 0.0 0.026545384480391 -0.0055953494852093 6.1710844086842e-05 0.0 0.0 0.0 0.0 0.0 0.0 0.0 0.0 0.0 0.025795623608821 -0.13936021406158 9.471960212774 0.0 0.0 0.0 0.0 0.0 0.0 0.0 0.0 0.0
1317065196696289062 0 1317065196696289062 imu_link -0.0006065680524378839 0.022909414291366607 0.9880278675790405 0.1525638348339415 0.0 0.0 0.0 0.0 0.0 0.0 0.0 0.0 0.0 0.0058761807435302 -0.016020038763601 0.0046240379846971 0.0 0.0 0.0 0.0 0.0 0.0 0.0 0.0 0.0 0.11666293100047 0.11158928256133 9.9294532577898 0.0 0.0 0.0 0.0 0.0 0.0 0.0 0.0 0.0
1317065196806174039 0 1317065196806174039 imu_link -0.0013623382776153277 0.02217629695789527 0.9880889336898193 0.15227151738709577 0.0 0.0 0.0 0.0 0.0 0.0 0.0 0.0 0.0 -0.016352830595468 0.0095240860802638 0.0063681608293256 0.0 0.0 0.0 0.0 0.0 0.0 0.0 0.0 0.0 0.083545985261047 0.32052194520818 9.8970196806205 0.0 0.0 0.0 0.0 0.0 0.0 0.0 0.0 0.0
1317065196906137943 0 1317065196906137943 imu_link -0.0015512659203546736 0.021122703016207466 0.9881543602609819 0.15199468835634644 0.0 0.0 0.0 0.0 0.0 0.0 0.0 0.0 0.0 -0.017000005631203 0.0024449965891874 0.0065820080999501 0.0 0.0 0.0 0.0 0.0 0.0 0.0 0.0 0.0 -0.0055019044914454 0.17143734854508 9.5703045216609 0.0 0.0 0.0 0.0 0.0 0.0 0.0 0.0 0.0
1317065197006192922 0 1317065197006192922 imu_link -4.333464302703344e-05 0.01989169758606343 0.9882334606482309 0.15165403306366315 0.0 0.0 0.0 0.0 0.0 0.0 0.0 0.0 0.0 -0.019117054858064 -0.029031288062893 0.0074852312677328 0.0 0.0 0.0 0.0 0.0 0.0 0.0 0.0 0.0 0.042000817082494 0.0014909902721233 9.9324063232196 0.0 0.0 0.0 0.0 0.0 0.0 0.0 0.0 0.0
1317065197106190919 0 1317065197106190919 imu_link 0.001459812638662552 0.019535989684527206 0.988321416358274 0.15111913188501744 0.0 0.0 0.0 0.0 0.0 0.0 0.0 0.0 0.0 -0.0047677474233609 -0.0318442071829 0.010071753922216 0.0 0.0 0.0 0.0 0.0 0.0 0.0 0.0 0.0 0.13861317240395 -0.051006929845131 10.400679606876 0.0 0.0 0.0 0.0 0.0 0.0 0.0 0.0 0.0
